run_id,chinFirst,trial_duration_exact,window_width,window_height,window_width_max,window_height_max,window_diagonal_max,window_diagonal,trial_index,withinTaskIndex,task_nr,time_elapsed,choiceTask_amountLeftFirst,key_press,option_topLeft,option_bottomLeft,option_topRight,option_bottomRight,x_mean,y_mean,count,fps,choseTop,LL_top,choseLL,aLL,aSS,tLL,tSS,amountLeft,optionIndex,attributeIndex,trans_type_0,trans_type_1,trans_type_2,trans_type_3,trans_type_4,trans_type_6,trans_type_7,payneIndex,k,age,gender,ethnic,degree
14,0.0,1736.0,1280.0,720.0,1280.0,720.0,1468.6047800548656,1468.6047800548656,266.0,1.0,3.0,659865.0,1.0,40.0,$3.5,$4.5,Today,180 days,0.4649218749999999,0.5055092592592589,30.0,17.28110599078341,0.0,0.0,,4.5,3.5,180.0,0.0,1.0,0.0,0.0,10,1,0,1,1,1,0,0.0,0.0015873015873015877,1995.0,male,caucasian,college
14,0.0,1083.0,1280.0,720.0,1280.0,720.0,1468.6047800548656,1468.6047800548656,269.0,2.0,3.0,664093.0,1.0,40.0,$2.5,$4.5,Today,30 days,0.30830592105263155,0.42763157894736803,19.0,17.54385964912281,0.0,0.0,,4.5,2.5,30.0,0.0,1.0,0.45454545454545453,0.8181818181818182,9,1,0,1,0,0,0,0.0,0.02666666666666667,1995.0,male,caucasian,college
14,0.0,2113.0,1280.0,720.0,1280.0,720.0,1468.6047800548656,1468.6047800548656,272.0,3.0,3.0,669289.0,1.0,40.0,$4,$4.5,Today,Tomorrow,0.3697001689189188,0.5388888888888884,37.0,17.510648367250354,0.0,0.0,,4.5,4.0,1.0,0.0,1.0,-0.4166666666666667,0.75,22,1,1,0,0,0,0,1.0,0.125,1995.0,male,caucasian,college
14,0.0,3694.0,1280.0,720.0,1280.0,720.0,1468.6047800548656,1468.6047800548656,275.0,4.0,3.0,676094.0,1.0,38.0,$5,$4,7 days,Today,0.35893028846153857,0.46551282051282,65.0,17.596101786681103,1.0,1.0,1.0,5.0,4.0,7.0,0.0,1.0,-0.35,0.6,34,1,0,3,1,1,0,-0.3333333333333333,0.03571428571428571,1995.0,male,caucasian,college
14,0.0,3035.0,1280.0,720.0,1280.0,720.0,1468.6047800548656,1468.6047800548656,278.0,5.0,3.0,682222.0,1.0,38.0,$4,$1.5,15 days,Today,0.4258107311320756,0.42982180293501027,53.0,17.462932454695224,1.0,1.0,1.0,4.0,1.5,15.0,0.0,1.0,-0.10344827586206896,0.2413793103448276,22,0,1,2,1,3,0,-0.6666666666666666,0.1111111111111111,1995.0,male,caucasian,college
14,0.0,3238.0,1280.0,720.0,1280.0,720.0,1468.6047800548656,1468.6047800548656,281.0,6.0,3.0,688596.0,1.0,38.0,$5,$1.5,30 days,Today,0.36060474537037035,0.37710905349794205,54.0,16.676961087090795,1.0,1.0,1.0,5.0,1.5,30.0,0.0,1.0,-0.6666666666666666,0.6,24,0,0,2,0,2,2,-1.0,0.07777777777777778,1995.0,male,caucasian,college
14,0.0,2352.0,1280.0,720.0,1280.0,720.0,1468.6047800548656,1468.6047800548656,284.0,7.0,3.0,694026.0,1.0,40.0,$1,$4,Today,30 days,0.4310594512195122,0.5639905149051484,41.0,17.431972789115648,0.0,0.0,,4.0,1.0,30.0,0.0,1.0,-0.46153846153846156,0.15384615384615385,23,1,0,0,1,1,0,0.3333333333333333,0.1,1995.0,male,caucasian,college
14,0.0,2795.0,1280.0,720.0,1280.0,720.0,1468.6047800548656,1468.6047800548656,287.0,8.0,3.0,699925.0,1.0,40.0,$3,$4.5,Today,180 days,0.4266900510204081,0.49129818594104263,49.0,17.531305903398927,0.0,0.0,,4.5,3.0,180.0,0.0,1.0,-0.14285714285714285,0.2571428571428571,30,1,0,0,1,3,0,-0.2,0.002777777777777778,1995.0,male,caucasian,college
14,0.0,3411.0,1280.0,720.0,1280.0,720.0,1468.6047800548656,1468.6047800548656,290.0,9.0,3.0,706464.0,1.0,38.0,$4.5,$3,90 days,Today,0.493046875,0.4608796296296292,60.0,17.590149516270888,1.0,1.0,1.0,4.5,3.0,90.0,0.0,1.0,-0.1,0.1,31,1,0,1,1,5,1,-0.5,0.005555555555555556,1995.0,male,caucasian,college
14,0.0,2512.0,1280.0,720.0,1280.0,720.0,1468.6047800548656,1468.6047800548656,293.0,10.0,3.0,712091.0,1.0,40.0,$3.5,$4,Today,15 days,0.4115234375,0.4472537878787874,44.0,17.515923566878982,0.0,0.0,,4.0,3.5,15.0,0.0,1.0,0.3103448275862069,0.3793103448275862,25,0,1,1,1,1,0,-0.3333333333333333,0.00952380952380952,1995.0,male,caucasian,college
14,0.0,3532.0,1280.0,720.0,1280.0,720.0,1468.6047800548656,1468.6047800548656,296.0,11.0,3.0,718708.0,1.0,38.0,$4,$3,90 days,Today,0.3753402217741935,0.3882840501792111,62.0,17.553793884484712,1.0,1.0,1.0,4.0,3.0,90.0,0.0,1.0,-0.43478260869565216,0.43478260869565216,40,1,0,2,0,1,2,-0.5,0.003703703703703703,1995.0,male,caucasian,college
14,0.0,1114.0,1280.0,720.0,1280.0,720.0,1468.6047800548656,1468.6047800548656,299.0,12.0,3.0,722919.0,1.0,38.0,$4,$3.5,15 days,Today,0.47282072368421063,0.40263157894736784,19.0,17.0556552962298,1.0,1.0,1.0,4.0,3.5,15.0,0.0,1.0,-1.0,0.75,7,1,0,0,0,0,0,1.0,0.00952380952380952,1995.0,male,caucasian,college
14,0.0,2238.0,1280.0,720.0,1280.0,720.0,1468.6047800548656,1468.6047800548656,302.0,13.0,3.0,728283.0,1.0,40.0,$3.5,$5,Today,15 days,0.4162459935897436,0.5022435897435893,39.0,17.42627345844504,0.0,0.0,,5.0,3.5,15.0,0.0,1.0,0.058823529411764705,0.29411764705882354,13,1,1,2,0,0,0,-0.3333333333333333,0.028571428571428574,1995.0,male,caucasian,college
14,0.0,2251.0,1280.0,720.0,1280.0,720.0,1468.6047800548656,1468.6047800548656,305.0,14.0,3.0,733612.0,1.0,38.0,$5,$1,90 days,Today,0.3704687500000001,0.38871527777777726,40.0,17.76988005330964,1.0,1.0,1.0,5.0,1.0,90.0,0.0,1.0,-0.7037037037037037,0.5555555555555556,24,1,0,0,0,1,1,0.0,0.044444444444444446,1995.0,male,caucasian,college
14,0.0,2283.0,1280.0,720.0,1280.0,720.0,1468.6047800548656,1468.6047800548656,308.0,15.0,3.0,739009.0,1.0,38.0,$4.5,$2,180 days,Today,0.3341406250000001,0.42461805555555526,40.0,17.520805957074025,1.0,1.0,1.0,4.5,2.0,180.0,0.0,1.0,-0.6666666666666666,0.8333333333333334,19,1,0,2,0,1,1,-0.5,0.006944444444444444,1995.0,male,caucasian,college
14,0.0,1891.0,1280.0,720.0,1280.0,720.0,1468.6047800548656,1468.6047800548656,311.0,16.0,3.0,743994.0,1.0,40.0,$3.5,$5,Today,7 days,0.4437736742424243,0.5278198653198651,33.0,17.451084082496035,0.0,0.0,,5.0,3.5,7.0,0.0,1.0,-0.2631578947368421,0.2631578947368421,15,1,1,0,0,2,0,-0.3333333333333333,0.06122448979591837,1995.0,male,caucasian,college
14,0.0,3571.0,1280.0,720.0,1280.0,720.0,1468.6047800548656,1468.6047800548656,314.0,17.0,3.0,750718.0,1.0,40.0,$4,$3.5,7 days,Today,0.43668154761904765,0.46155202821869445,63.0,17.642117054046487,0.0,1.0,,4.0,3.5,7.0,0.0,1.0,0.0,0.35,29,0,0,3,2,4,2,-0.5555555555555556,0.020408163265306114,1995.0,male,caucasian,college
14,0.0,2565.0,1280.0,720.0,1280.0,720.0,1468.6047800548656,1468.6047800548656,317.0,18.0,3.0,756409.0,1.0,38.0,$4,$2.5,7 days,Today,0.38074652777777784,0.3914814814814811,45.0,17.54385964912281,1.0,1.0,1.0,4.0,2.5,7.0,0.0,1.0,-1.0,0.6470588235294118,15,2,0,0,0,0,0,1.0,0.08571428571428573,1995.0,male,caucasian,college
14,0.0,2078.0,1280.0,720.0,1280.0,720.0,1468.6047800548656,1468.6047800548656,320.0,19.0,3.0,761594.0,1.0,40.0,$3,$4,Today,Tomorrow,0.4218116554054054,0.4939189189189186,37.0,17.8055822906641,0.0,0.0,,4.0,3.0,1.0,0.0,1.0,-0.1,0.1,14,1,1,0,0,4,0,-0.6,0.33333333333333326,1995.0,male,caucasian,college
14,0.0,2912.0,1280.0,720.0,1280.0,720.0,1468.6047800548656,1468.6047800548656,323.0,20.0,3.0,767667.0,1.0,38.0,$4,$1.5,7 days,Today,0.39201171874999996,0.4095486111111106,40.0,13.736263736263735,1.0,1.0,1.0,4.0,1.5,7.0,0.0,1.0,-0.6363636363636364,0.5454545454545454,14,0,0,2,0,4,2,-1.0,0.23809523809523808,1995.0,male,caucasian,college
14,0.0,2117.0,1280.0,720.0,1280.0,720.0,1468.6047800548656,1468.6047800548656,326.0,21.0,3.0,772924.0,1.0,40.0,$1.5,$4.5,Today,7 days,0.46965725806451625,0.5006272401433687,31.0,14.643363249881908,0.0,0.0,,4.5,1.5,7.0,0.0,1.0,0.0,0.42857142857142855,11,1,0,0,1,1,0,0.3333333333333333,0.2857142857142857,1995.0,male,caucasian,college
14,0.0,2467.0,1280.0,720.0,1280.0,720.0,1468.6047800548656,1468.6047800548656,329.0,22.0,3.0,778522.0,1.0,40.0,$3.5,$4.5,Today,Tomorrow,0.4061954941860465,0.4974160206718342,43.0,17.430077016619375,0.0,0.0,,4.5,3.5,1.0,0.0,1.0,-0.1111111111111111,0.25925925925925924,19,0,2,4,0,2,0,-1.0,0.2857142857142858,1995.0,male,caucasian,college
14,0.0,3767.0,1280.0,720.0,1280.0,720.0,1468.6047800548656,1468.6047800548656,332.0,23.0,3.0,785405.0,1.0,40.0,$4,$5,Today,7 days,0.3697088068181818,0.49484427609427556,66.0,17.52057340058402,0.0,0.0,,5.0,4.0,7.0,0.0,1.0,-0.12195121951219512,0.5121951219512195,30,2,0,5,0,4,0,-0.6363636363636364,0.03571428571428571,1995.0,male,caucasian,college
14,0.0,3256.0,1280.0,720.0,1280.0,720.0,1468.6047800548656,1468.6047800548656,335.0,24.0,3.0,791749.0,1.0,38.0,$5,$3,15 days,Today,0.3584018640350878,0.4682261208576994,57.0,17.506142506142506,1.0,1.0,1.0,5.0,3.0,15.0,0.0,1.0,0.0,0.2631578947368421,32,0,1,3,0,1,1,-1.0,0.044444444444444446,1995.0,male,caucasian,college
14,0.0,2073.0,1280.0,720.0,1280.0,720.0,1468.6047800548656,1468.6047800548656,338.0,25.0,3.0,796952.0,1.0,40.0,$3.5,$5,Today,30 days,0.467599826388889,0.5207561728395058,36.0,17.36613603473227,0.0,0.0,,5.0,3.5,30.0,0.0,1.0,-0.3333333333333333,0.2222222222222222,16,1,1,0,0,0,0,1.0,0.014285714285714287,1995.0,male,caucasian,college
14,0.0,2593.0,1280.0,720.0,1280.0,720.0,1468.6047800548656,1468.6047800548656,341.0,26.0,3.0,802642.0,1.0,40.0,$4.5,$5,Today,7 days,0.43254076086956517,0.5116545893719803,46.0,17.740069417662937,0.0,0.0,,5.0,4.5,7.0,0.0,1.0,-0.04,0.28,18,2,0,3,0,2,0,-0.42857142857142855,0.01587301587301588,1995.0,male,caucasian,college
14,0.0,2246.0,1280.0,720.0,1280.0,720.0,1468.6047800548656,1468.6047800548656,344.0,27.0,3.0,807990.0,1.0,38.0,$4.5,$4,90 days,Today,0.29947916666666674,0.4918447293447289,39.0,17.36420302760463,1.0,1.0,1.0,4.5,4.0,90.0,0.0,1.0,-0.07692307692307693,1.0,24,0,0,2,0,0,0,-1.0,0.001388888888888889,1995.0,male,caucasian,college
14,0.0,2680.0,1280.0,720.0,1280.0,720.0,1468.6047800548656,1468.6047800548656,347.0,28.0,3.0,813758.0,1.0,38.0,$4.5,$2.5,90 days,Today,0.4671043882978724,0.45097517730496417,47.0,17.53731343283582,1.0,1.0,1.0,4.5,2.5,90.0,0.0,1.0,-0.46153846153846156,0.07692307692307693,22,1,0,1,1,1,0,0.0,0.008888888888888889,1995.0,male,caucasian,college
14,0.0,3346.0,1280.0,720.0,1280.0,720.0,1468.6047800548656,1468.6047800548656,350.0,29.0,3.0,820215.0,1.0,38.0,$4,$3,7 days,Today,0.33773834745762715,0.4780367231638412,59.0,17.632994620442318,1.0,1.0,1.0,4.0,3.0,7.0,0.0,1.0,0.034482758620689655,0.3793103448275862,19,1,0,7,0,1,1,-0.7777777777777778,0.04761904761904761,1995.0,male,caucasian,college
14,0.0,3406.0,1280.0,720.0,1280.0,720.0,1468.6047800548656,1468.6047800548656,353.0,30.0,3.0,826715.0,1.0,40.0,$3.5,$4.5,Today,7 days,0.42201822916666665,0.5058333333333328,60.0,17.615971814445096,0.0,0.0,,4.5,3.5,7.0,0.0,1.0,-0.21052631578947367,0.47368421052631576,32,0,0,2,1,2,1,-0.6,0.040816326530612256,1995.0,male,caucasian,college
14,0.0,3697.0,1280.0,720.0,1280.0,720.0,1468.6047800548656,1468.6047800548656,356.0,31.0,3.0,833498.0,1.0,38.0,$4.5,$3,15 days,Today,0.36449519230769234,0.5079914529914524,65.0,17.581823099810656,1.0,1.0,1.0,4.5,3.0,15.0,0.0,1.0,-0.1875,0.0,22,2,0,2,2,4,0,-0.2,0.03333333333333333,1995.0,male,caucasian,college
14,0.0,2045.0,1280.0,720.0,1280.0,720.0,1468.6047800548656,1468.6047800548656,359.0,32.0,3.0,838653.0,1.0,38.0,$4,$2,15 days,Today,0.4063802083333334,0.4050154320987649,36.0,17.6039119804401,1.0,1.0,1.0,4.0,2.0,15.0,0.0,1.0,-0.48148148148148145,0.3333333333333333,20,2,0,4,0,0,1,-0.3333333333333333,0.06666666666666667,1995.0,male,caucasian,college
14,0.0,2016.0,1280.0,720.0,1280.0,720.0,1468.6047800548656,1468.6047800548656,362.0,33.0,3.0,843776.0,1.0,40.0,$1,$4.5,Today,180 days,0.4608928571428571,0.6611507936507935,35.0,17.36111111111111,0.0,0.0,,4.5,1.0,180.0,0.0,1.0,-0.6551724137931034,0.3103448275862069,25,2,1,1,0,0,0,0.3333333333333333,0.019444444444444445,1995.0,male,caucasian,college
14,0.0,1723.0,1280.0,720.0,1280.0,720.0,1468.6047800548656,1468.6047800548656,365.0,34.0,3.0,848608.0,1.0,40.0,$3.5,$4,Today,Tomorrow,0.4252343750000001,0.46898148148148106,30.0,17.411491584445734,0.0,0.0,,4.0,3.5,1.0,0.0,1.0,-0.15789473684210525,0.6842105263157895,17,0,0,0,1,0,1,1.0,0.1428571428571428,1995.0,male,caucasian,college
14,0.0,2487.0,1280.0,720.0,1280.0,720.0,1468.6047800548656,1468.6047800548656,368.0,35.0,3.0,854203.0,1.0,38.0,$4,$1,90 days,Today,0.4727107558139535,0.34534883720930215,43.0,17.289907519099316,1.0,1.0,1.0,4.0,1.0,90.0,0.0,1.0,-0.7692307692307693,0.38461538461538464,22,2,1,1,0,0,0,0.3333333333333333,0.03333333333333333,1995.0,male,caucasian,college
14,0.0,2628.0,1280.0,720.0,1280.0,720.0,1468.6047800548656,1468.6047800548656,371.0,36.0,3.0,859921.0,1.0,38.0,$4,$2.5,30 days,Today,0.4735903532608695,0.3877415458937195,46.0,17.503805175038053,1.0,1.0,1.0,4.0,2.5,30.0,0.0,1.0,-0.42857142857142855,0.42857142857142855,31,1,0,1,1,1,0,0.0,0.020000000000000004,1995.0,male,caucasian,college
14,0.0,2460.0,1280.0,720.0,1280.0,720.0,1468.6047800548656,1468.6047800548656,374.0,37.0,3.0,865488.0,1.0,38.0,$4.5,$4,Tomorrow,Today,0.4875545058139536,0.3726098191214465,43.0,17.479674796747968,1.0,1.0,1.0,4.5,4.0,1.0,0.0,1.0,-0.5263157894736842,0.21052631578947367,34,1,0,1,1,1,0,0.0,0.125,1995.0,male,caucasian,college
14,0.0,2285.0,1280.0,720.0,1280.0,720.0,1468.6047800548656,1468.6047800548656,377.0,38.0,3.0,870887.0,1.0,40.0,$1,$5,Today,30 days,0.5548632812500001,0.39315972222222173,40.0,17.505470459518598,0.0,0.0,,5.0,1.0,30.0,0.0,1.0,0.4482758620689655,-0.034482758620689655,26,0,1,1,0,1,0,-1.0,0.13333333333333333,1995.0,male,caucasian,college
14,0.0,2015.0,1280.0,720.0,1280.0,720.0,1468.6047800548656,1468.6047800548656,380.0,39.0,3.0,876013.0,1.0,40.0,$2,$4.5,Today,7 days,0.5526339285714286,0.376587301587301,35.0,17.3697270471464,0.0,0.0,,4.5,2.0,7.0,0.0,1.0,0.42857142857142855,0.14285714285714285,23,1,0,0,1,3,0,-0.2,0.17857142857142858,1995.0,male,caucasian,college
14,0.0,3252.0,1280.0,720.0,1280.0,720.0,1468.6047800548656,1468.6047800548656,383.0,40.0,3.0,882363.0,1.0,38.0,$5,$1,30 days,Today,0.5155975877192982,0.3975389863547755,57.0,17.527675276752767,1.0,1.0,1.0,5.0,1.0,30.0,0.0,1.0,-0.2916666666666667,0.16666666666666666,44,1,0,1,1,1,0,0.0,0.13333333333333333,1995.0,male,caucasian,college
14,0.0,1792.0,1280.0,720.0,1280.0,720.0,1468.6047800548656,1468.6047800548656,387.0,41.0,3.0,890335.0,1.0,40.0,Today,15 days,$2,$5,0.6238911290322582,0.40112007168458724,31.0,17.299107142857142,0.0,0.0,,,,,0.0,,,,19,0,0,0,0,0,0,,,1995.0,male,caucasian,college
14,0.0,3543.0,1280.0,720.0,1280.0,720.0,1468.6047800548656,1468.6047800548656,390.0,42.0,3.0,897027.0,1.0,38.0,90 days,Today,$4.5,$3.5,0.5708543346774193,0.33530465949820754,62.0,17.499294383290998,1.0,1.0,1.0,,,,0.0,,,,42,0,0,0,0,0,0,,,1995.0,male,caucasian,college
14,0.0,3196.0,1280.0,720.0,1280.0,720.0,1468.6047800548656,1468.6047800548656,393.0,43.0,3.0,903332.0,1.0,38.0,90 days,Today,$4,$2,0.58896484375,0.3909474206349201,56.0,17.521902377972467,1.0,1.0,1.0,,,,0.0,,,,43,0,0,0,0,0,0,,,1995.0,male,caucasian,college
14,0.0,2634.0,1280.0,720.0,1280.0,720.0,1468.6047800548656,1468.6047800548656,396.0,44.0,3.0,909097.0,1.0,40.0,Today,7 days,$4,$5,0.5112941576086957,0.46014492753623143,46.0,17.463933181473045,0.0,0.0,,,,,0.0,,,,39,0,0,0,0,0,0,,,1995.0,male,caucasian,college
14,0.0,2797.0,1280.0,720.0,1280.0,720.0,1468.6047800548656,1468.6047800548656,399.0,45.0,3.0,914994.0,1.0,38.0,90 days,Today,$4.5,$3,0.6483258928571427,0.33767006802721045,49.0,17.518770110833035,1.0,1.0,1.0,,,,0.0,,,,30,0,0,0,0,0,0,,,1995.0,male,caucasian,college
14,0.0,3084.0,1280.0,720.0,1280.0,720.0,1468.6047800548656,1468.6047800548656,402.0,46.0,3.0,921204.0,1.0,38.0,15 days,Today,$4.5,$1,0.6321903935185186,0.32227366255144,54.0,17.509727626459146,1.0,1.0,1.0,,,,0.0,,,,27,0,0,0,0,0,0,,,1995.0,male,caucasian,college
14,0.0,3174.0,1280.0,720.0,1280.0,720.0,1468.6047800548656,1468.6047800548656,405.0,47.0,3.0,927494.0,1.0,38.0,180 days,Today,$4,$2,0.5763671875000002,0.33531746031745985,56.0,17.643352236925015,1.0,1.0,1.0,,,,0.0,,,,37,0,0,0,0,0,0,,,1995.0,male,caucasian,college
14,0.0,2771.0,1280.0,720.0,1280.0,720.0,1468.6047800548656,1468.6047800548656,408.0,48.0,3.0,933422.0,1.0,38.0,180 days,Today,$5,$4,0.6331792091836737,0.36179138321995435,49.0,17.683146878383255,1.0,1.0,1.0,,,,0.0,,,,29,0,0,0,0,0,0,,,1995.0,male,caucasian,college
14,0.0,2517.0,1280.0,720.0,1280.0,720.0,1468.6047800548656,1468.6047800548656,411.0,49.0,3.0,939037.0,1.0,40.0,Today,30 days,$1,$5,0.5907670454545455,0.43478535353535325,44.0,17.481128327373856,0.0,0.0,,,,,0.0,,,,33,0,0,0,0,0,0,,,1995.0,male,caucasian,college
14,0.0,2726.0,1280.0,720.0,1280.0,720.0,1468.6047800548656,1468.6047800548656,414.0,50.0,3.0,945342.0,1.0,38.0,7 days,Today,$5,$3,0.5333496093750002,0.4165798611111106,48.0,17.608217168011738,1.0,1.0,1.0,,,,0.0,,,,32,0,0,0,0,0,0,,,1995.0,male,caucasian,college
14,0.0,2248.0,1280.0,720.0,1280.0,720.0,1468.6047800548656,1468.6047800548656,417.0,51.0,3.0,950709.0,1.0,40.0,Today,30 days,$4,$5,0.4898838141025641,0.4644943019943017,39.0,17.348754448398576,0.0,0.0,,,,,0.0,,,,18,0,0,0,0,0,0,,,1995.0,male,caucasian,college
14,0.0,2343.0,1280.0,720.0,1280.0,720.0,1468.6047800548656,1468.6047800548656,420.0,52.0,3.0,956162.0,1.0,38.0,90 days,Today,$4.5,$2,0.5151486280487805,0.40999322493224893,41.0,17.49893299189074,1.0,1.0,1.0,,,,0.0,,,,29,0,0,0,0,0,0,,,1995.0,male,caucasian,college
14,0.0,2334.0,1280.0,720.0,1280.0,720.0,1468.6047800548656,1468.6047800548656,423.0,53.0,3.0,961594.0,1.0,40.0,Today,90 days,$1.5,$4.5,0.5642530487804877,0.4536924119241188,41.0,17.566409597257927,0.0,0.0,,,,,0.0,,,,36,0,0,0,0,0,0,,,1995.0,male,caucasian,college
14,0.0,1737.0,1280.0,720.0,1280.0,720.0,1468.6047800548656,1468.6047800548656,426.0,54.0,3.0,966445.0,1.0,40.0,Today,90 days,$4,$5,0.5192708333333332,0.4888888888888886,30.0,17.271157167530223,0.0,0.0,,,,,0.0,,,,16,0,0,0,0,0,0,,,1995.0,male,caucasian,college
14,0.0,2443.0,1280.0,720.0,1280.0,720.0,1468.6047800548656,1468.6047800548656,429.0,55.0,3.0,971996.0,1.0,40.0,Today,180 days,$2,$4.5,0.5433712121212122,0.032954545454545424,33.0,13.507981989357347,0.0,0.0,,,,,0.0,,,,12,0,0,0,0,0,0,,,1995.0,male,caucasian,college
14,0.0,2185.0,1280.0,720.0,1280.0,720.0,1468.6047800548656,1468.6047800548656,432.0,56.0,3.0,977291.0,1.0,40.0,Today,180 days,$2,$5,0.564000822368421,0.45350877192982414,38.0,17.391304347826086,0.0,0.0,,,,,0.0,,,,25,0,0,0,0,0,0,,,1995.0,male,caucasian,college
14,0.0,2880.0,1280.0,720.0,1280.0,720.0,1468.6047800548656,1468.6047800548656,435.0,57.0,3.0,983294.0,1.0,38.0,180 days,Today,$4,50 cent,0.5295343137254902,0.3985566448801739,51.0,17.708333333333332,1.0,1.0,1.0,,,,0.0,,,,38,0,0,0,0,0,0,,,1995.0,male,caucasian,college
14,0.0,1620.0,1280.0,720.0,1280.0,720.0,1468.6047800548656,1468.6047800548656,438.0,58.0,3.0,988041.0,1.0,40.0,Today,90 days,$3,$4,0.40438058035714286,0.47693452380952334,28.0,17.28395061728395,0.0,0.0,,,,,0.0,,,,23,0,0,0,0,0,0,,,1995.0,male,caucasian,college
14,0.0,2601.0,1280.0,720.0,1280.0,720.0,1468.6047800548656,1468.6047800548656,441.0,59.0,3.0,993775.0,1.0,40.0,Today,7 days,$2,$5,0.5507291666666667,0.5035185185185181,45.0,17.301038062283737,0.0,0.0,,,,,0.0,,,,34,0,0,0,0,0,0,,,1995.0,male,caucasian,college
14,0.0,3902.0,1280.0,720.0,1280.0,720.0,1468.6047800548656,1468.6047800548656,444.0,60.0,3.0,1000780.0,1.0,38.0,30 days,Today,$4,$2.5,0.5955307904411766,0.4950776143790847,68.0,17.42696053305997,1.0,1.0,1.0,,,,0.0,,,,51,0,0,0,0,0,0,,,1995.0,male,caucasian,college
14,0.0,3418.0,1280.0,720.0,1280.0,720.0,1468.6047800548656,1468.6047800548656,447.0,61.0,3.0,1007305.0,1.0,40.0,Today,15 days,$2.5,$5,0.5145703125,0.5640972222222217,60.0,17.554125219426567,0.0,0.0,,,,,0.0,,,,44,0,0,0,0,0,0,,,1995.0,male,caucasian,college
14,0.0,1898.0,1280.0,720.0,1280.0,720.0,1468.6047800548656,1468.6047800548656,450.0,62.0,3.0,1012288.0,1.0,40.0,90 days,Today,$5,$4,0.44618844696969695,0.5244528619528616,33.0,17.38672286617492,0.0,1.0,,,,,0.0,,,,21,0,0,0,0,0,0,,,1995.0,male,caucasian,college
14,0.0,1946.0,1280.0,720.0,1280.0,720.0,1468.6047800548656,1468.6047800548656,453.0,63.0,3.0,1017344.0,1.0,40.0,Today,90 days,$3,$5,0.45271139705882346,0.35743464052287544,34.0,17.471736896197328,0.0,0.0,,,,,0.0,,,,26,0,0,0,0,0,0,,,1995.0,male,caucasian,college
14,0.0,1879.0,1280.0,720.0,1280.0,720.0,1468.6047800548656,1468.6047800548656,456.0,64.0,3.0,1022334.0,1.0,40.0,Today,180 days,$3.5,$4,0.45705566406250003,0.5056423611111107,32.0,17.03033528472592,0.0,0.0,,,,,0.0,,,,12,0,0,0,0,0,0,,,1995.0,male,caucasian,college
14,0.0,3996.0,1280.0,720.0,1280.0,720.0,1468.6047800548656,1468.6047800548656,459.0,65.0,3.0,1029440.0,1.0,40.0,Today,180 days,$3.5,$5,0.4000792572463768,0.45497181964573224,69.0,17.26726726726727,0.0,0.0,,,,,0.0,,,,41,0,0,0,0,0,0,,,1995.0,male,caucasian,college
14,0.0,2439.0,1280.0,720.0,1280.0,720.0,1468.6047800548656,1468.6047800548656,462.0,66.0,3.0,1034966.0,1.0,38.0,90 days,Today,$4,$3,0.4847656250000001,0.3048611111111108,42.0,17.22017220172202,1.0,1.0,1.0,,,,0.0,,,,29,0,0,0,0,0,0,,,1995.0,male,caucasian,college
14,0.0,4693.0,1280.0,720.0,1280.0,720.0,1468.6047800548656,1468.6047800548656,465.0,67.0,3.0,1042794.0,1.0,38.0,Today,30 days,$2.5,$4.5,0.4434070121951222,0.47508468834688306,82.0,17.47283187726401,1.0,0.0,0.0,,,,0.0,,,,54,0,0,0,0,0,0,,,1995.0,male,caucasian,college
14,0.0,2891.0,1280.0,720.0,1280.0,720.0,1468.6047800548656,1468.6047800548656,468.0,68.0,3.0,1048794.0,1.0,40.0,180 days,Today,$4,$2.5,0.3903033088235294,0.42505446623093646,51.0,17.640954686959528,0.0,1.0,,,,,0.0,,,,36,0,0,0,0,0,0,,,1995.0,male,caucasian,college
14,0.0,2773.0,1280.0,720.0,1280.0,720.0,1468.6047800548656,1468.6047800548656,471.0,69.0,3.0,1054704.0,1.0,40.0,Today,180 days,50 cent,$4.5,0.4864095052083334,0.44890046296296254,48.0,17.30977280923188,0.0,0.0,,,,,0.0,,,,33,0,0,0,0,0,0,,,1995.0,male,caucasian,college
14,0.0,1734.0,1280.0,720.0,1280.0,720.0,1468.6047800548656,1468.6047800548656,474.0,70.0,3.0,1059526.0,1.0,40.0,Today,15 days,$1.5,$4.5,0.47432291666666665,0.46777777777777735,30.0,17.301038062283737,0.0,0.0,,,,,0.0,,,,22,0,0,0,0,0,0,,,1995.0,male,caucasian,college
14,0.0,1847.0,1280.0,720.0,1280.0,720.0,1468.6047800548656,1468.6047800548656,477.0,71.0,3.0,1064476.0,1.0,40.0,Today,7 days,$1.5,$4,0.5175781250000001,0.5051215277777773,32.0,17.325392528424473,0.0,0.0,,,,,0.0,,,,23,0,0,0,0,0,0,,,1995.0,male,caucasian,college
14,0.0,3182.0,1280.0,720.0,1280.0,720.0,1468.6047800548656,1468.6047800548656,480.0,72.0,3.0,1070749.0,1.0,38.0,Today,Tomorrow,$4,$5,0.44715401785714287,0.4127976190476187,56.0,17.59899434318039,1.0,0.0,0.0,,,,0.0,,,,37,0,0,0,0,0,0,,,1995.0,male,caucasian,college
14,0.0,3257.0,1280.0,720.0,1280.0,720.0,1468.6047800548656,1468.6047800548656,483.0,73.0,3.0,1077171.0,1.0,38.0,Today,180 days,$3.5,$4.5,0.4367050438596493,0.4205653021442491,57.0,17.50076757752533,1.0,0.0,0.0,,,,0.0,,,,40,0,0,0,0,0,0,,,1995.0,male,caucasian,college
14,0.0,1905.0,1280.0,720.0,1280.0,720.0,1468.6047800548656,1468.6047800548656,486.0,74.0,3.0,1082183.0,1.0,40.0,Today,Tomorrow,$3.5,$4,0.495904356060606,0.47781986531986487,33.0,17.322834645669293,0.0,0.0,,,,,0.0,,,,21,0,0,0,0,0,0,,,1995.0,male,caucasian,college
14,0.0,2338.0,1280.0,720.0,1280.0,720.0,1468.6047800548656,1468.6047800548656,489.0,75.0,3.0,1087617.0,1.0,38.0,7 days,Today,$5,$4,0.540987042682927,0.4245934959349589,41.0,17.536355859709154,1.0,1.0,1.0,,,,0.0,,,,25,0,0,0,0,0,0,,,1995.0,male,caucasian,college
14,0.0,1847.0,1280.0,720.0,1280.0,720.0,1468.6047800548656,1468.6047800548656,492.0,76.0,3.0,1092567.0,1.0,40.0,30 days,Today,$4.5,$4,0.6083496093749999,0.6100694444444441,32.0,17.325392528424473,0.0,1.0,,,,,0.0,,,,14,0,0,0,0,0,0,,,1995.0,male,caucasian,college
14,0.0,3548.0,1280.0,720.0,1280.0,720.0,1468.6047800548656,1468.6047800548656,495.0,77.0,3.0,1099243.0,1.0,38.0,180 days,Today,$4.5,$2,0.49477066532258046,0.42744175627240105,62.0,17.474633596392334,1.0,1.0,1.0,,,,0.0,,,,49,0,0,0,0,0,0,,,1995.0,male,caucasian,college
14,0.0,1304.0,1280.0,720.0,1280.0,720.0,1468.6047800548656,1468.6047800548656,498.0,78.0,3.0,1103661.0,1.0,40.0,Today,180 days,$3,$5,0.6218410326086957,0.5733091787439609,23.0,17.63803680981595,0.0,0.0,,,,,0.0,,,,15,0,0,0,0,0,0,,,1995.0,male,caucasian,college
14,0.0,2972.0,1280.0,720.0,1280.0,720.0,1468.6047800548656,1468.6047800548656,501.0,79.0,3.0,1109740.0,1.0,38.0,180 days,Today,$5,$2.5,0.48434495192307686,0.4946047008547004,52.0,17.49663526244953,1.0,1.0,1.0,,,,0.0,,,,32,0,0,0,0,0,0,,,1995.0,male,caucasian,college
14,0.0,4430.0,1280.0,720.0,1280.0,720.0,1468.6047800548656,1468.6047800548656,504.0,80.0,3.0,1117307.0,1.0,40.0,Today,30 days,$4.5,$5,0.4658076298701297,0.387896825396825,77.0,17.381489841986458,0.0,0.0,,,,,0.0,,,,44,0,0,0,0,0,0,,,1995.0,male,caucasian,college
3,0.0,3273.0,2048.0,1152.0,2048.0,1152.0,2349.767648087785,2349.767648087785,266.0,1.0,3.0,790037.0,0.0,40.0,Today,15 days,$1,$5,0.5687255859375,0.704610710470085,52.0,15.887564925145126,0.0,0.0,,,,,0.0,,,,19,0,0,0,0,0,0,,,1995.0,male,caucasian,grad
3,0.0,2358.0,2048.0,1152.0,2048.0,1152.0,2349.767648087785,2349.767648087785,269.0,2.0,3.0,795739.0,0.0,40.0,Today,15 days,$3,$5,0.5893053886217948,0.5751647079772075,39.0,16.53944020356234,0.0,0.0,,,,,0.0,,,,9,0,0,0,0,0,0,,,1995.0,male,caucasian,grad
3,0.0,2220.0,2048.0,1152.0,2048.0,1152.0,2349.767648087785,2349.767648087785,272.0,3.0,3.0,801049.0,0.0,40.0,Today,180 days,50 cent,$4,0.5032145182291666,0.41008391203703676,36.0,16.216216216216218,0.0,0.0,,,,,0.0,,,,11,0,0,0,0,0,0,,,1995.0,male,caucasian,grad
3,0.0,2019.0,2048.0,1152.0,2048.0,1152.0,2349.767648087785,2349.767648087785,275.0,4.0,3.0,806083.0,0.0,38.0,15 days,Today,$5,$1.5,0.4102450284090909,0.5093118686868682,11.0,5.448241703813769,1.0,1.0,1.0,,,,0.0,,,,3,0,0,0,0,0,0,,,1995.0,male,caucasian,grad
3,0.0,2017.0,2048.0,1152.0,2048.0,1152.0,2349.767648087785,2349.767648087785,278.0,5.0,3.0,811113.0,0.0,40.0,Today,30 days,$3,$5,0.53833984375,0.5816666666666661,25.0,12.394645513138324,0.0,0.0,,,,,0.0,,,,6,0,0,0,0,0,0,,,1995.0,male,caucasian,grad
3,0.0,1957.0,2048.0,1152.0,2048.0,1152.0,2349.767648087785,2349.767648087785,281.0,6.0,3.0,816090.0,0.0,38.0,90 days,Today,$4,50 cent,0.5271321614583333,0.5850983796296293,30.0,15.329586101175268,1.0,1.0,1.0,,,,0.0,,,,10,0,0,0,0,0,0,,,1995.0,male,caucasian,grad
3,0.0,5703.0,2048.0,1152.0,2048.0,1152.0,2349.767648087785,2349.767648087785,284.0,7.0,3.0,824873.0,0.0,40.0,Today,Tomorrow,$3,$4,0.4100964604591837,0.5950875141723352,98.0,17.183938278099244,0.0,0.0,,,,,0.0,,,,42,0,0,0,0,0,0,,,1995.0,male,caucasian,grad
3,0.0,2323.0,2048.0,1152.0,2048.0,1152.0,2349.767648087785,2349.767648087785,287.0,8.0,3.0,830285.0,0.0,40.0,Today,180 days,$2,$4.5,0.4494694890202703,0.37356888138138106,37.0,15.927679724494189,0.0,0.0,,,,,0.0,,,,15,0,0,0,0,0,0,,,1995.0,male,caucasian,grad
3,0.0,2045.0,2048.0,1152.0,2048.0,1152.0,2349.767648087785,2349.767648087785,290.0,9.0,3.0,835533.0,0.0,40.0,Today,15 days,$3.5,$4.5,0.5136990017361112,0.6117380401234562,18.0,8.80195599022005,0.0,0.0,,,,,0.0,,,,5,0,0,0,0,0,0,,,1995.0,male,caucasian,grad
3,0.0,1897.0,2048.0,1152.0,2048.0,1152.0,2349.767648087785,2349.767648087785,293.0,10.0,3.0,840705.0,0.0,40.0,Today,90 days,$1,$4.5,0.65986328125,0.42453703703703666,15.0,7.907221929362151,0.0,0.0,,,,,0.0,,,,6,0,0,0,0,0,0,,,1995.0,male,caucasian,grad
3,0.0,1836.0,2048.0,1152.0,2048.0,1152.0,2349.767648087785,2349.767648087785,296.0,11.0,3.0,845555.0,0.0,40.0,Today,180 days,50 cent,$4.5,0.5670030381944444,0.5073945473251024,27.0,14.705882352941176,0.0,0.0,,,,,0.0,,,,5,0,0,0,0,0,0,,,1995.0,male,caucasian,grad
3,0.0,2545.0,2048.0,1152.0,2048.0,1152.0,2349.767648087785,2349.767648087785,299.0,12.0,3.0,851209.0,0.0,38.0,90 days,Today,$4.5,$1.5,0.5735270182291666,0.5778838734567896,36.0,14.145383104125736,1.0,1.0,1.0,,,,0.0,,,,11,0,0,0,0,0,0,,,1995.0,male,caucasian,grad
3,0.0,2975.0,2048.0,1152.0,2048.0,1152.0,2349.767648087785,2349.767648087785,302.0,13.0,3.0,857285.0,0.0,38.0,7 days,Today,$4.5,$4,0.3610687255859375,0.2641872829861109,32.0,10.756302521008404,1.0,1.0,1.0,,,,0.0,,,,13,0,0,0,0,0,0,,,1995.0,male,caucasian,grad
3,0.0,2193.0,2048.0,1152.0,2048.0,1152.0,2349.767648087785,2349.767648087785,305.0,14.0,3.0,862598.0,0.0,40.0,Today,15 days,$1.5,$4,0.3742047991071429,0.5058283730158727,35.0,15.959872321021432,0.0,0.0,,,,,0.0,,,,15,0,0,0,0,0,0,,,1995.0,male,caucasian,grad
3,0.0,2278.0,2048.0,1152.0,2048.0,1152.0,2349.767648087785,2349.767648087785,308.0,15.0,3.0,868067.0,0.0,40.0,Today,180 days,$2.5,$4,0.5299275716145834,0.5895182291666662,24.0,10.535557506584723,0.0,0.0,,,,,0.0,,,,6,0,0,0,0,0,0,,,1995.0,male,caucasian,grad
3,0.0,1950.0,2048.0,1152.0,2048.0,1152.0,2349.767648087785,2349.767648087785,311.0,16.0,3.0,873098.0,0.0,40.0,Today,7 days,$4,$4.5,0.44854736328125,0.5676540798611108,32.0,16.41025641025641,0.0,0.0,,,,,0.0,,,,8,0,0,0,0,0,0,,,1995.0,male,caucasian,grad
3,0.0,1855.0,2048.0,1152.0,2048.0,1152.0,2349.767648087785,2349.767648087785,314.0,17.0,3.0,877980.0,0.0,40.0,Today,90 days,$3.5,$5,0.45014880952380953,0.5262483465608463,21.0,11.320754716981131,0.0,0.0,,,,,0.0,,,,6,0,0,0,0,0,0,,,1995.0,male,caucasian,grad
3,0.0,2200.0,2048.0,1152.0,2048.0,1152.0,2349.767648087785,2349.767648087785,317.0,18.0,3.0,883284.0,0.0,40.0,Today,180 days,$2.5,$4.5,0.4841579861111111,0.4156298225308638,36.0,16.363636363636363,0.0,0.0,,,,,0.0,,,,17,0,0,0,0,0,0,,,1995.0,male,caucasian,grad
3,0.0,1605.0,2048.0,1152.0,2048.0,1152.0,2349.767648087785,2349.767648087785,320.0,19.0,3.0,887920.0,0.0,40.0,Today,90 days,$1,$4,0.5325753348214286,0.5732886904761901,7.0,4.361370716510903,0.0,0.0,,,,,0.0,,,,4,0,0,0,0,0,0,,,1995.0,male,caucasian,grad
3,0.0,1639.0,2048.0,1152.0,2048.0,1152.0,2349.767648087785,2349.767648087785,323.0,20.0,3.0,892675.0,0.0,38.0,15 days,Today,$4,$3,0.43009765625,0.36239583333333303,25.0,15.25320317266626,1.0,1.0,1.0,,,,0.0,,,,11,0,0,0,0,0,0,,,1995.0,male,caucasian,grad
3,0.0,1728.0,2048.0,1152.0,2048.0,1152.0,2349.767648087785,2349.767648087785,326.0,21.0,3.0,897421.0,0.0,40.0,Today,90 days,$1.5,$5,0.49416387648809523,0.5748181216931213,21.0,12.152777777777779,0.0,0.0,,,,,0.0,,,,2,0,0,0,0,0,0,,,1995.0,male,caucasian,grad
3,0.0,2198.0,2048.0,1152.0,2048.0,1152.0,2349.767648087785,2349.767648087785,329.0,22.0,3.0,902716.0,0.0,40.0,Today,180 days,$4.5,$5,0.6280133928571429,0.4715525793650789,35.0,15.92356687898089,0.0,0.0,,,,,0.0,,,,6,0,0,0,0,0,0,,,1995.0,male,caucasian,grad
3,0.0,1716.0,2048.0,1152.0,2048.0,1152.0,2349.767648087785,2349.767648087785,332.0,23.0,3.0,907448.0,0.0,38.0,7 days,Today,$4,$3,0.484619140625,0.6385091145833328,16.0,9.324009324009324,1.0,1.0,1.0,,,,0.0,,,,8,0,0,0,0,0,0,,,1995.0,male,caucasian,grad
3,0.0,1974.0,2048.0,1152.0,2048.0,1152.0,2349.767648087785,2349.767648087785,335.0,24.0,3.0,912439.0,0.0,38.0,15 days,Today,$4.5,$4,0.467041015625,0.48801415598290565,26.0,13.171225937183385,1.0,1.0,1.0,,,,0.0,,,,9,0,0,0,0,0,0,,,1995.0,male,caucasian,grad
3,0.0,1526.0,2048.0,1152.0,2048.0,1152.0,2349.767648087785,2349.767648087785,338.0,25.0,3.0,916996.0,0.0,38.0,180 days,Today,$4.5,50 cent,0.49173177083333336,0.5508680555555553,15.0,9.82961992136304,1.0,1.0,1.0,,,,0.0,,,,6,0,0,0,0,0,0,,,1995.0,male,caucasian,grad
3,0.0,1751.0,2048.0,1152.0,2048.0,1152.0,2349.767648087785,2349.767648087785,341.0,26.0,3.0,922005.0,0.0,40.0,Today,15 days,$2,$5,0.36115579044117646,0.36529820261437884,34.0,19.41747572815534,0.0,0.0,,,,,0.0,,,,12,0,0,0,0,0,0,,,1995.0,male,caucasian,grad
3,0.0,1466.0,2048.0,1152.0,2048.0,1152.0,2349.767648087785,2349.767648087785,347.0,28.0,3.0,931722.0,0.0,38.0,7 days,Today,$4.5,$1.5,0.5751953125,0.4556970164609049,27.0,18.417462482946792,1.0,1.0,1.0,,,,0.0,,,,9,0,0,0,0,0,0,,,1995.0,male,caucasian,grad
3,0.0,1697.0,2048.0,1152.0,2048.0,1152.0,2349.767648087785,2349.767648087785,350.0,29.0,3.0,936462.0,0.0,40.0,Today,30 days,$3.5,$5,0.47718394886363635,0.4450757575757569,11.0,6.482027106658809,0.0,0.0,,,,,0.0,,,,5,0,0,0,0,0,0,,,1995.0,male,caucasian,grad
3,0.0,1458.0,2048.0,1152.0,2048.0,1152.0,2349.767648087785,2349.767648087785,353.0,30.0,3.0,941009.0,0.0,38.0,15 days,Today,$5,$3.5,0.36181640625,0.2892875514403291,27.0,18.51851851851852,1.0,1.0,1.0,,,,0.0,,,,11,0,0,0,0,0,0,,,1995.0,male,caucasian,grad
3,0.0,2897.0,2048.0,1152.0,2048.0,1152.0,2349.767648087785,2349.767648087785,356.0,31.0,3.0,946981.0,0.0,40.0,Today,30 days,$4.5,$5,0.3367565524193548,0.4574652777777774,31.0,10.700724887814982,0.0,0.0,,,,,0.0,,,,9,0,0,0,0,0,0,,,1995.0,male,caucasian,grad
3,0.0,1547.0,2048.0,1152.0,2048.0,1152.0,2349.767648087785,2349.767648087785,359.0,32.0,3.0,951649.0,0.0,38.0,180 days,Today,$4,$1,0.47446986607142855,0.5576223544973542,21.0,13.574660633484163,1.0,1.0,1.0,,,,0.0,,,,5,0,0,0,0,0,0,,,1995.0,male,caucasian,grad
3,0.0,2016.0,2048.0,1152.0,2048.0,1152.0,2349.767648087785,2349.767648087785,365.0,34.0,3.0,961865.0,0.0,40.0,Today,90 days,$2,$4,0.5121002197265625,0.5001898871527775,32.0,15.873015873015873,0.0,0.0,,,,,0.0,,,,6,0,0,0,0,0,0,,,1995.0,male,caucasian,grad
3,0.0,2015.0,2048.0,1152.0,2048.0,1152.0,2349.767648087785,2349.767648087785,368.0,35.0,3.0,966897.0,0.0,38.0,90 days,Today,$4.5,50 cent,0.3877857349537037,0.4047389403292177,27.0,13.399503722084367,1.0,1.0,1.0,,,,0.0,,,,11,0,0,0,0,0,0,,,1995.0,male,caucasian,grad
3,0.0,1868.0,2048.0,1152.0,2048.0,1152.0,2349.767648087785,2349.767648087785,371.0,36.0,3.0,971880.0,0.0,40.0,Today,7 days,$1.5,$4,0.46351360452586204,0.343031609195402,29.0,15.524625267665954,0.0,0.0,,,,,0.0,,,,9,0,0,0,0,0,0,,,1995.0,male,caucasian,grad
3,0.0,2576.0,2048.0,1152.0,2048.0,1152.0,2349.767648087785,2349.767648087785,374.0,37.0,3.0,977536.0,0.0,40.0,Today,90 days,$3,$5,0.47736873183139533,0.5856548772609813,43.0,16.69254658385093,0.0,0.0,,,,,0.0,,,,21,0,0,0,0,0,0,,,1995.0,male,caucasian,grad
3,0.0,1647.0,2048.0,1152.0,2048.0,1152.0,2349.767648087785,2349.767648087785,377.0,38.0,3.0,982264.0,0.0,38.0,180 days,Today,$4,$3,0.5260479266826923,0.48671207264957206,26.0,15.786278081360049,1.0,1.0,1.0,,,,0.0,,,,8,0,0,0,0,0,0,,,1995.0,male,caucasian,grad
3,0.0,2476.0,2048.0,1152.0,2048.0,1152.0,2349.767648087785,2349.767648087785,380.0,39.0,3.0,987888.0,0.0,40.0,Today,7 days,$1.5,$5,0.4514793113425926,0.53443287037037,27.0,10.904684975767367,0.0,0.0,,,,,0.0,,,,6,0,0,0,0,0,0,,,1995.0,male,caucasian,grad
3,0.0,1876.0,2048.0,1152.0,2048.0,1152.0,2349.767648087785,2349.767648087785,383.0,40.0,3.0,992852.0,0.0,40.0,Today,90 days,$3,$4,0.5519205729166666,0.4395833333333329,30.0,15.991471215351812,0.0,0.0,,,,,0.0,,,,7,0,0,0,0,0,0,,,1995.0,male,caucasian,grad
3,0.0,2535.0,2048.0,1152.0,2048.0,1152.0,2349.767648087785,2349.767648087785,387.0,41.0,3.0,1001436.0,0.0,40.0,$2,$5,Today,180 days,0.5462143841911765,0.6107792075163395,34.0,13.41222879684418,0.0,0.0,,180.0,0.0,5.0,0.0,0.0,-0.4,0.6,7,0,0,2,0,0,1,-1.0,inf,1995.0,male,caucasian,grad
3,0.0,1470.0,2048.0,1152.0,2048.0,1152.0,2349.767648087785,2349.767648087785,390.0,42.0,3.0,1005936.0,0.0,40.0,$2.5,$5,Today,90 days,0.6018880208333334,0.6205150462962961,18.0,12.244897959183673,0.0,0.0,,90.0,0.0,5.0,0.0,0.0,-0.4,0.8,7,0,0,1,2,0,0,0.3333333333333333,inf,1995.0,male,caucasian,grad
3,0.0,2466.0,2048.0,1152.0,2048.0,1152.0,2349.767648087785,2349.767648087785,393.0,43.0,3.0,1011556.0,0.0,38.0,$5,$4,30 days,Today,0.44683837890625,0.5100911458333329,40.0,16.220600162206,1.0,1.0,1.0,30.0,0.0,5.0,0.0,0.0,0.0,-0.25,7,3,1,1,2,2,0,0.25,inf,1995.0,male,caucasian,grad
3,0.0,1849.0,2048.0,1152.0,2048.0,1152.0,2349.767648087785,2349.767648087785,399.0,45.0,3.0,1021503.0,0.0,38.0,$4,50 cent,90 days,Today,0.4584263392857143,0.5694134424603171,28.0,15.143320713899405,1.0,1.0,1.0,90.0,0.0,4.0,0.0,0.0,1.0,-0.6,9,0,0,0,1,0,0,1.0,inf,1995.0,male,caucasian,grad
3,0.0,1635.0,2048.0,1152.0,2048.0,1152.0,2349.767648087785,2349.767648087785,402.0,46.0,3.0,1026159.0,0.0,40.0,$1,$5,Today,180 days,0.5677664620535714,0.5895337301587297,14.0,8.562691131498472,0.0,0.0,,180.0,0.0,5.0,0.0,0.0,-1.0,0.5,3,1,0,0,0,0,0,1.0,inf,1995.0,male,caucasian,grad
3,0.0,1536.0,2048.0,1152.0,2048.0,1152.0,2349.767648087785,2349.767648087785,405.0,47.0,3.0,1030739.0,0.0,38.0,$4.5,$3.5,90 days,Today,0.3995576746323529,0.5633680555555551,17.0,11.067708333333334,1.0,1.0,1.0,90.0,0.0,4.5,0.0,0.0,0.5555555555555556,-0.7777777777777778,6,0,1,0,1,1,0,0.0,inf,1995.0,male,caucasian,grad
3,0.0,1820.0,2048.0,1152.0,2048.0,1152.0,2349.767648087785,2349.767648087785,408.0,48.0,3.0,1035634.0,0.0,38.0,$5,$4.5,180 days,Today,0.42257254464285715,0.6138082837301582,28.0,15.384615384615385,1.0,1.0,1.0,180.0,0.0,5.0,0.0,0.0,0.38461538461538464,-0.07692307692307693,4,1,1,3,2,2,0,-0.25,inf,1995.0,male,caucasian,grad
3,0.0,1881.0,2048.0,1152.0,2048.0,1152.0,2349.767648087785,2349.767648087785,411.0,49.0,3.0,1040548.0,0.0,38.0,$4,50 cent,30 days,Today,0.45770263671875,0.6395399305555552,16.0,8.506113769271664,1.0,1.0,1.0,30.0,0.0,4.0,0.0,0.0,1.0,-1.0,5,0,0,0,0,0,0,,inf,1995.0,male,caucasian,grad
3,0.0,1386.0,2048.0,1152.0,2048.0,1152.0,2349.767648087785,2349.767648087785,417.0,51.0,3.0,1049422.0,0.0,38.0,$4.5,$2.5,90 days,Today,0.39278738839285715,0.5448908730158725,7.0,5.05050505050505,1.0,1.0,1.0,90.0,0.0,4.5,0.0,0.0,0.0,-1.0,1,0,0,0,0,1,0,-1.0,inf,1995.0,male,caucasian,grad
3,0.0,1324.0,2048.0,1152.0,2048.0,1152.0,2349.767648087785,2349.767648087785,420.0,52.0,3.0,1053776.0,0.0,38.0,$4.5,$2,90 days,Today,0.49630301339285715,0.5951140873015868,7.0,5.287009063444109,1.0,1.0,1.0,90.0,0.0,4.5,0.0,0.0,1.0,1.0,1,0,0,0,0,0,0,,inf,1995.0,male,caucasian,grad
3,0.0,1371.0,2048.0,1152.0,2048.0,1152.0,2349.767648087785,2349.767648087785,423.0,53.0,3.0,1058163.0,0.0,40.0,$2.5,$4,Today,180 days,0.5597330729166666,0.5974151234567897,9.0,6.564551422319475,0.0,0.0,,180.0,0.0,4.0,0.0,0.0,1.0,1.0,2,0,0,0,0,0,0,,inf,1995.0,male,caucasian,grad
3,0.0,2276.0,2048.0,1152.0,2048.0,1152.0,2349.767648087785,2349.767648087785,426.0,54.0,3.0,1063537.0,0.0,38.0,$4.5,$4,Tomorrow,Today,0.4310752467105263,0.5023528874269004,38.0,16.695957820738137,1.0,1.0,1.0,1.0,0.0,4.5,0.0,0.0,0.3333333333333333,-0.16666666666666666,4,1,2,0,1,3,1,-0.2,inf,1995.0,male,caucasian,grad
3,0.0,1485.0,2048.0,1152.0,2048.0,1152.0,2349.767648087785,2349.767648087785,429.0,55.0,3.0,1068091.0,0.0,40.0,$2.5,$4.5,Today,15 days,0.2853190104166667,0.432787698412698,21.0,14.141414141414142,0.0,0.0,,15.0,0.0,4.5,0.0,0.0,0.3333333333333333,-0.6666666666666666,3,0,0,0,0,2,1,-1.0,inf,1995.0,male,caucasian,grad
3,0.0,1428.0,2048.0,1152.0,2048.0,1152.0,2349.767648087785,2349.767648087785,432.0,56.0,3.0,1072609.0,0.0,40.0,$2.5,$4.5,Today,180 days,0.39808872767857145,0.7095734126984123,7.0,4.901960784313726,0.0,0.0,,180.0,0.0,4.5,0.0,0.0,-1.0,-0.5,3,1,0,0,0,0,0,1.0,inf,1995.0,male,caucasian,grad
3,0.0,1763.0,2048.0,1152.0,2048.0,1152.0,2349.767648087785,2349.767648087785,438.0,58.0,3.0,1081726.0,0.0,40.0,$3.5,$4,Today,Tomorrow,0.5241268382352942,0.6092473447712414,34.0,19.28530913216109,0.0,0.0,,1.0,0.0,4.0,0.0,0.0,-1.0,0.0,9,1,0,0,0,0,0,1.0,inf,1995.0,male,caucasian,grad
3,0.0,2559.0,2048.0,1152.0,2048.0,1152.0,2349.767648087785,2349.767648087785,441.0,59.0,3.0,1087396.0,0.0,40.0,$3,$4.5,Today,180 days,0.4791259765625,0.5269097222222218,8.0,3.1262211801484954,0.0,0.0,,180.0,0.0,4.5,0.0,0.0,0.3333333333333333,-0.3333333333333333,1,0,0,0,0,0,2,,inf,1995.0,male,caucasian,grad
3,0.0,1597.0,2048.0,1152.0,2048.0,1152.0,2349.767648087785,2349.767648087785,444.0,60.0,3.0,1092029.0,0.0,40.0,$1,$4,Today,180 days,0.5998942057291666,0.8035300925925922,12.0,7.514088916718848,0.0,0.0,,180.0,0.0,4.0,0.0,0.0,-1.0,0.0,1,3,0,0,0,0,0,1.0,inf,1995.0,male,caucasian,grad
3,0.0,1805.0,2048.0,1152.0,2048.0,1152.0,2349.767648087785,2349.767648087785,447.0,61.0,3.0,1096934.0,0.0,38.0,$4.5,$4,15 days,Today,0.48875558035714284,0.6468005952380947,35.0,19.390581717451525,1.0,1.0,1.0,15.0,0.0,4.5,0.0,0.0,0.9047619047619048,-0.3333333333333333,18,0,0,1,2,0,0,0.3333333333333333,inf,1995.0,male,caucasian,grad
3,0.0,1652.0,2048.0,1152.0,2048.0,1152.0,2349.767648087785,2349.767648087785,450.0,62.0,3.0,1101896.0,0.0,40.0,$1,$5,Today,15 days,0.36616368447580644,0.6579301075268814,31.0,18.765133171912833,0.0,0.0,,15.0,0.0,5.0,0.0,0.0,-0.5,-0.5,7,1,0,0,1,2,1,0.0,inf,1995.0,male,caucasian,grad
3,0.0,2760.0,2048.0,1152.0,2048.0,1152.0,2349.767648087785,2349.767648087785,453.0,63.0,3.0,1107681.0,0.0,38.0,$4.5,$3.5,30 days,Today,0.5154296875,0.5793402777777774,5.0,1.8115942028985508,1.0,1.0,1.0,30.0,0.0,4.5,0.0,0.0,1.0,1.0,1,0,0,0,0,0,0,,inf,1995.0,male,caucasian,grad
3,0.0,1620.0,2048.0,1152.0,2048.0,1152.0,2349.767648087785,2349.767648087785,456.0,64.0,3.0,1112347.0,0.0,38.0,$5,$2,15 days,Today,0.571563720703125,0.5748155381944441,16.0,9.876543209876543,1.0,1.0,1.0,15.0,0.0,5.0,0.0,0.0,0.5,0.5,2,0,0,1,1,0,0,0.0,inf,1995.0,male,caucasian,grad
3,0.0,1457.0,2048.0,1152.0,2048.0,1152.0,2349.767648087785,2349.767648087785,459.0,65.0,3.0,1116830.0,0.0,38.0,$4,$2.5,15 days,Today,0.33238002232142855,0.6423611111111108,21.0,14.413177762525738,1.0,1.0,1.0,15.0,0.0,4.0,0.0,0.0,0.7142857142857143,-0.42857142857142855,3,0,1,0,2,1,0,0.3333333333333333,inf,1995.0,male,caucasian,grad
3,0.0,1454.0,2048.0,1152.0,2048.0,1152.0,2349.767648087785,2349.767648087785,462.0,66.0,3.0,1121381.0,0.0,38.0,$5,$2.5,180 days,Today,0.31884765625,0.5896267361111106,28.0,19.257221458046768,1.0,1.0,1.0,180.0,0.0,5.0,0.0,0.0,0.375,-0.375,11,0,0,1,1,3,0,-0.6,inf,1995.0,male,caucasian,grad
3,0.0,1619.0,2048.0,1152.0,2048.0,1152.0,2349.767648087785,2349.767648087785,465.0,67.0,3.0,1126126.0,0.0,38.0,$4,$1,30 days,Today,0.41978515625,0.5902777777777775,25.0,15.441630636195182,1.0,1.0,1.0,30.0,0.0,4.0,0.0,0.0,0.8,-0.6,8,0,0,0,1,1,0,0.0,inf,1995.0,male,caucasian,grad
3,0.0,1643.0,2048.0,1152.0,2048.0,1152.0,2349.767648087785,2349.767648087785,468.0,68.0,3.0,1130858.0,0.0,38.0,$4.5,50 cent,180 days,Today,0.2882434475806452,0.4851870519713256,31.0,18.867924528301888,1.0,1.0,1.0,180.0,0.0,4.5,0.0,0.0,0.14285714285714285,-0.5714285714285714,10,1,0,0,0,3,0,-0.5,inf,1995.0,male,caucasian,grad
3,0.0,1732.0,2048.0,1152.0,2048.0,1152.0,2349.767648087785,2349.767648087785,474.0,70.0,3.0,1140110.0,0.0,40.0,$2,$4,Today,180 days,0.4895652488425926,0.6235532407407404,27.0,15.58891454965358,0.0,0.0,,180.0,0.0,4.0,0.0,0.0,-1.0,-0.7142857142857143,6,1,0,0,0,0,0,1.0,inf,1995.0,male,caucasian,grad
3,0.0,1588.0,2048.0,1152.0,2048.0,1152.0,2349.767648087785,2349.767648087785,477.0,71.0,3.0,1144807.0,0.0,38.0,$4,$3.5,30 days,Today,0.49749755859375,0.5519024884259255,24.0,15.113350125944585,1.0,1.0,1.0,30.0,0.0,4.0,0.0,0.0,0.6,0.2,2,0,1,0,2,0,0,1.0,inf,1995.0,male,caucasian,grad
3,0.0,3456.0,2048.0,1152.0,2048.0,1152.0,2349.767648087785,2349.767648087785,480.0,72.0,3.0,1151350.0,0.0,38.0,$4,$3.5,90 days,Today,0.4568871670081967,0.5456654143897993,61.0,17.650462962962962,1.0,1.0,1.0,90.0,0.0,4.0,0.0,0.0,0.45454545454545453,0.09090909090909091,12,1,3,2,3,1,0,0.14285714285714285,inf,1995.0,male,caucasian,grad
3,0.0,1512.0,2048.0,1152.0,2048.0,1152.0,2349.767648087785,2349.767648087785,483.0,73.0,3.0,1155895.0,0.0,40.0,$2,$5,Today,30 days,0.4720052083333333,0.48559027777777747,15.0,9.920634920634921,0.0,0.0,,30.0,0.0,5.0,0.0,0.0,0.6,0.2,2,0,0,2,1,0,0,-0.3333333333333333,inf,1995.0,male,caucasian,grad
3,0.0,1466.0,2048.0,1152.0,2048.0,1152.0,2349.767648087785,2349.767648087785,492.0,76.0,3.0,1171109.0,0.0,40.0,$1,$4,Today,15 days,0.5140935724431818,0.49364741161616127,22.0,15.006821282401091,0.0,0.0,,15.0,0.0,4.0,0.0,0.0,-0.3333333333333333,0.3333333333333333,2,0,0,0,0,0,1,,inf,1995.0,male,caucasian,grad
3,0.0,1933.0,2048.0,1152.0,2048.0,1152.0,2349.767648087785,2349.767648087785,495.0,77.0,3.0,1176063.0,0.0,38.0,$5,$4.5,7 days,Today,0.47900390625,0.5892547123015869,28.0,14.485256078634247,1.0,1.0,1.0,7.0,0.0,5.0,0.0,0.0,0.25,0.0,3,0,0,2,2,1,0,-0.2,inf,1995.0,male,caucasian,grad
3,0.0,1967.0,2048.0,1152.0,2048.0,1152.0,2349.767648087785,2349.767648087785,498.0,78.0,3.0,1181125.0,0.0,38.0,$5,$3.5,7 days,Today,0.5318522135416667,0.5816261574074069,30.0,15.251652262328419,1.0,1.0,1.0,7.0,0.0,5.0,0.0,0.0,1.0,0.6,8,0,0,0,2,0,0,1.0,inf,1995.0,male,caucasian,grad
3,0.0,2325.0,2048.0,1152.0,2048.0,1152.0,2349.767648087785,2349.767648087785,501.0,79.0,3.0,1186470.0,0.0,40.0,$1.5,$4.5,Today,15 days,0.43480541087962965,0.5063978909465017,27.0,11.612903225806452,0.0,0.0,,15.0,0.0,4.5,0.0,0.0,0.0,-0.6666666666666666,5,0,4,0,0,3,0,-1.0,inf,1995.0,male,caucasian,grad
3,0.0,2022.0,2048.0,1152.0,2048.0,1152.0,2349.767648087785,2349.767648087785,504.0,80.0,3.0,1191598.0,0.0,38.0,$4.5,$3,15 days,Today,0.3068084716796875,0.43904622395833304,32.0,15.825914935707221,1.0,1.0,1.0,15.0,0.0,4.5,0.0,0.0,-0.6666666666666666,-0.3333333333333333,4,1,1,0,0,0,0,1.0,inf,1995.0,male,caucasian,grad
4,0.0,3075.0,1280.0,800.0,1280.0,800.0,1509.4369811290567,1509.4369811290567,266.0,1.0,3.0,999792.0,0.0,40.0,Today,180 days,$2.5,$5,0.3491477272727272,0.6339204545454545,22.0,7.154471544715447,0.0,0.0,,,,,0.0,,,,3,0,0,0,0,0,0,,,1998.0,female,caucasian,Bachelor
4,0.0,2829.0,1280.0,800.0,1280.0,800.0,1509.4369811290567,1509.4369811290567,269.0,2.0,3.0,1005767.0,0.0,40.0,Today,90 days,$3,$5,0.7980282738095241,0.7544047619047617,21.0,7.423117709437964,0.0,0.0,,,,,0.0,,,,18,0,0,0,0,0,0,,,1998.0,female,caucasian,Bachelor
4,0.0,2073.0,1280.0,800.0,1280.0,800.0,1509.4369811290567,1509.4369811290567,272.0,3.0,3.0,1010947.0,0.0,40.0,15 days,Today,$5,$4.5,0.9234375,0.7449999999999997,20.0,9.64785335262904,0.0,1.0,,,,,0.0,,,,20,0,0,0,0,0,0,,,1998.0,female,caucasian,Bachelor
4,0.0,2166.0,1280.0,800.0,1280.0,800.0,1509.4369811290567,1509.4369811290567,275.0,4.0,3.0,1016269.0,0.0,40.0,Today,7 days,$1.5,$4,0.7824032738095239,0.6401190476190474,21.0,9.695290858725762,0.0,0.0,,,,,0.0,,,,18,0,0,0,0,0,0,,,1998.0,female,caucasian,Bachelor
4,0.0,2062.0,1280.0,800.0,1280.0,800.0,1509.4369811290567,1509.4369811290567,278.0,5.0,3.0,1022219.0,0.0,38.0,Today,90 days,$4,$4.5,0.6006324404761907,0.5357738095238094,21.0,10.184287099903006,1.0,0.0,0.0,,,,0.0,,,,14,0,0,0,0,0,0,,,1998.0,female,caucasian,Bachelor
4,0.0,1694.0,1280.0,800.0,1280.0,800.0,1509.4369811290567,1509.4369811290567,281.0,6.0,3.0,1027045.0,0.0,40.0,Today,30 days,$1,$5,0.1418526785714286,0.49107142857142855,7.0,4.132231404958677,0.0,0.0,,,,,0.0,,,,1,0,0,0,0,0,0,,,1998.0,female,caucasian,Bachelor
4,0.0,2884.0,1280.0,800.0,1280.0,800.0,1509.4369811290567,1509.4369811290567,284.0,7.0,3.0,1033089.0,0.0,38.0,15 days,Today,$4.5,$1.5,0.8811266447368423,0.7563815789473681,19.0,6.588072122052704,1.0,1.0,1.0,,,,0.0,,,,18,0,0,0,0,0,0,,,1998.0,female,caucasian,Bachelor
4,0.0,2063.0,1280.0,800.0,1280.0,800.0,1509.4369811290567,1509.4369811290567,287.0,8.0,3.0,1038309.0,0.0,38.0,7 days,Today,$4.5,$3.5,0.9234375,0.7449999999999997,20.0,9.694619486185168,1.0,1.0,1.0,,,,0.0,,,,20,0,0,0,0,0,0,,,1998.0,female,caucasian,Bachelor
4,0.0,4800.0,1280.0,800.0,1280.0,800.0,1509.4369811290567,1509.4369811290567,290.0,9.0,3.0,1046248.0,0.0,38.0,Today,30 days,$4.5,$5,0.7714527027027023,0.6437837837837838,37.0,7.708333333333333,1.0,0.0,0.0,,,,0.0,,,,31,0,0,0,0,0,0,,,1998.0,female,caucasian,Bachelor
4,0.0,3111.0,1280.0,800.0,1280.0,800.0,1509.4369811290567,1509.4369811290567,293.0,10.0,3.0,1052526.0,0.0,40.0,Today,90 days,$1,$5,0.8899414062499998,0.7540104166666665,24.0,7.714561234329797,0.0,0.0,,,,,0.0,,,,23,0,0,0,0,0,0,,,1998.0,female,caucasian,Bachelor
4,0.0,2057.0,1280.0,800.0,1280.0,800.0,1509.4369811290567,1509.4369811290567,296.0,11.0,3.0,1057751.0,0.0,38.0,7 days,Today,$4.5,$2,0.9234375,0.7449999999999997,20.0,9.722897423432183,1.0,1.0,1.0,,,,0.0,,,,20,0,0,0,0,0,0,,,1998.0,female,caucasian,Bachelor
4,0.0,1642.0,1280.0,800.0,1280.0,800.0,1509.4369811290567,1509.4369811290567,299.0,12.0,3.0,1062573.0,0.0,38.0,90 days,Today,$4,$1.5,0.6222167968750001,0.497421875,16.0,9.7442143727162,1.0,1.0,1.0,,,,0.0,,,,11,0,0,0,0,0,0,,,1998.0,female,caucasian,Bachelor
4,0.0,1688.0,1280.0,800.0,1280.0,800.0,1509.4369811290567,1509.4369811290567,302.0,13.0,3.0,1067429.0,0.0,40.0,Today,90 days,50 cent,$4,0.35771484374999996,0.6768750000000001,8.0,4.739336492890995,0.0,0.0,,,,,0.0,,,,3,0,0,0,0,0,0,,,1998.0,female,caucasian,Bachelor
4,0.0,1626.0,1280.0,800.0,1280.0,800.0,1509.4369811290567,1509.4369811290567,305.0,14.0,3.0,1072215.0,0.0,40.0,Today,90 days,$1,$4.5,0.9234375000000002,0.7449999999999998,16.0,9.84009840098401,0.0,0.0,,,,,0.0,,,,16,0,0,0,0,0,0,,,1998.0,female,caucasian,Bachelor
4,0.0,2272.0,1280.0,800.0,1280.0,800.0,1509.4369811290567,1509.4369811290567,308.0,15.0,3.0,1077638.0,0.0,38.0,Today,90 days,$3.5,$4,0.7138926630434783,0.5727717391304346,23.0,10.123239436619718,1.0,0.0,0.0,,,,0.0,,,,18,0,0,0,0,0,0,,,1998.0,female,caucasian,Bachelor
4,0.0,2515.0,1280.0,800.0,1280.0,800.0,1509.4369811290567,1509.4369811290567,311.0,16.0,3.0,1084060.0,0.0,38.0,180 days,Today,$4,$1,0.6896821120689655,0.5934913793103446,29.0,11.530815109343937,1.0,1.0,1.0,,,,0.0,,,,22,0,0,0,0,0,0,,,1998.0,female,caucasian,Bachelor
4,0.0,2376.0,1280.0,800.0,1280.0,800.0,1509.4369811290567,1509.4369811290567,314.0,17.0,3.0,1089955.0,0.0,38.0,15 days,Today,$4.5,$3,0.6287024456521741,0.5539673913043476,23.0,9.68013468013468,1.0,1.0,1.0,,,,0.0,,,,16,0,0,0,0,0,0,,,1998.0,female,caucasian,Bachelor
4,0.0,3003.0,1280.0,800.0,1280.0,800.0,1509.4369811290567,1509.4369811290567,317.0,18.0,3.0,1096952.0,0.0,40.0,30 days,Today,$5,$4.5,0.6773437499999998,0.6096370967741934,31.0,10.323010323010323,0.0,1.0,,,,,0.0,,,,23,0,0,0,0,0,0,,,1998.0,female,caucasian,Bachelor
4,0.0,3304.0,1280.0,800.0,1280.0,800.0,1509.4369811290567,1509.4369811290567,320.0,19.0,3.0,1103699.0,0.0,38.0,180 days,Today,$5,$1.5,0.7351345486111108,0.6229513888888889,36.0,10.895883777239709,1.0,1.0,1.0,,,,0.0,,,,29,0,0,0,0,0,0,,,1998.0,female,caucasian,Bachelor
4,0.0,2432.0,1280.0,800.0,1280.0,800.0,1509.4369811290567,1509.4369811290567,323.0,20.0,3.0,1109304.0,0.0,38.0,15 days,Today,$4,$1,0.76715625,0.6075999999999997,25.0,10.279605263157896,1.0,1.0,1.0,,,,0.0,,,,21,0,0,0,0,0,0,,,1998.0,female,caucasian,Bachelor
4,0.0,1624.0,1280.0,800.0,1280.0,800.0,1509.4369811290567,1509.4369811290567,326.0,21.0,3.0,1114552.0,0.0,40.0,Today,15 days,$1.5,$4,0.4997558593750001,0.470390625,16.0,9.852216748768473,0.0,0.0,,,,,0.0,,,,9,0,0,0,0,0,0,,,1998.0,female,caucasian,Bachelor
4,0.0,5295.0,1280.0,800.0,1280.0,800.0,1509.4369811290567,1509.4369811290567,329.0,22.0,3.0,1123037.0,0.0,40.0,Today,90 days,$3.5,$5,0.7360416666666663,0.6565555555555558,45.0,8.498583569405099,0.0,0.0,,,,,0.0,,,,36,0,0,0,0,0,0,,,1998.0,female,caucasian,Bachelor
4,0.0,1858.0,1280.0,800.0,1280.0,800.0,1509.4369811290567,1509.4369811290567,332.0,23.0,3.0,1128010.0,0.0,40.0,Today,30 days,$1.5,$4,0.803824013157895,0.6744736842105261,19.0,10.226049515608182,0.0,0.0,,,,,0.0,,,,17,0,0,0,0,0,0,,,1998.0,female,caucasian,Bachelor
4,0.0,2255.0,1280.0,800.0,1280.0,800.0,1509.4369811290567,1509.4369811290567,335.0,24.0,3.0,1134282.0,0.0,40.0,Today,90 days,$2.5,$4.5,0.6287024456521741,0.5539673913043476,23.0,10.199556541019955,0.0,0.0,,,,,0.0,,,,16,0,0,0,0,0,0,,,1998.0,female,caucasian,Bachelor
4,0.0,1916.0,1280.0,800.0,1280.0,800.0,1509.4369811290567,1509.4369811290567,338.0,25.0,3.0,1139222.0,0.0,40.0,Today,90 days,$2,$4.5,0.15916193181818183,0.39693181818181816,11.0,5.741127348643007,0.0,0.0,,,,,0.0,,,,2,0,0,0,0,0,0,,,1998.0,female,caucasian,Bachelor
4,0.0,2380.0,1280.0,800.0,1280.0,800.0,1509.4369811290567,1509.4369811290567,341.0,26.0,3.0,1144731.0,0.0,40.0,Today,15 days,$2.5,$5,0.8660156250000002,0.7604464285714284,14.0,5.882352941176471,0.0,0.0,,,,,0.0,,,,13,0,0,0,0,0,0,,,1998.0,female,caucasian,Bachelor
4,0.0,2888.0,1280.0,800.0,1280.0,800.0,1509.4369811290567,1509.4369811290567,344.0,27.0,3.0,1150775.0,0.0,40.0,Today,7 days,$3,$5,0.888485054347826,0.7544021739130432,23.0,7.96398891966759,0.0,0.0,,,,,0.0,,,,22,0,0,0,0,0,0,,,1998.0,female,caucasian,Bachelor
4,0.0,3389.0,1280.0,800.0,1280.0,800.0,1509.4369811290567,1509.4369811290567,347.0,28.0,3.0,1157288.0,0.0,40.0,Today,Tomorrow,$3.5,$4.5,0.8899414062499998,0.7540104166666665,24.0,7.081735025081145,0.0,0.0,,,,,0.0,,,,23,0,0,0,0,0,0,,,1998.0,female,caucasian,Bachelor
4,0.0,1687.0,1280.0,800.0,1280.0,800.0,1509.4369811290567,1509.4369811290567,350.0,29.0,3.0,1162133.0,0.0,40.0,Today,15 days,$2,$4.5,0.9234375,0.7449999999999997,19.0,11.26259632483699,0.0,0.0,,,,,0.0,,,,19,0,0,0,0,0,0,,,1998.0,female,caucasian,Bachelor
4,0.0,4667.0,1280.0,800.0,1280.0,800.0,1509.4369811290567,1509.4369811290567,353.0,30.0,3.0,1169927.0,0.0,38.0,7 days,Today,$4,$2.5,0.6955030487804875,0.6350914634146341,41.0,8.78508677951575,1.0,1.0,1.0,,,,0.0,,,,31,0,0,0,0,0,0,,,1998.0,female,caucasian,Bachelor
4,0.0,3473.0,1280.0,800.0,1280.0,800.0,1509.4369811290567,1509.4369811290567,356.0,31.0,3.0,1176535.0,0.0,40.0,30 days,Today,$5,$4,0.7045937500000002,0.6738999999999996,25.0,7.198387561186294,0.0,1.0,,,,,0.0,,,,19,0,0,0,0,0,0,,,1998.0,female,caucasian,Bachelor
4,0.0,1508.0,1280.0,800.0,1280.0,800.0,1509.4369811290567,1509.4369811290567,359.0,32.0,3.0,1181220.0,0.0,40.0,Today,90 days,$2,$4,0.9234375000000002,0.7449999999999998,15.0,9.946949602122016,0.0,0.0,,,,,0.0,,,,15,0,0,0,0,0,0,,,1998.0,female,caucasian,Bachelor
4,0.0,2079.0,1280.0,800.0,1280.0,800.0,1509.4369811290567,1509.4369811290567,362.0,33.0,3.0,1186427.0,0.0,38.0,30 days,Today,$4,$1.5,0.7458451704545457,0.5888636363636361,22.0,10.582010582010582,1.0,1.0,1.0,,,,0.0,,,,18,0,0,0,0,0,0,,,1998.0,female,caucasian,Bachelor
4,0.0,3369.0,1280.0,800.0,1280.0,800.0,1509.4369811290567,1509.4369811290567,365.0,34.0,3.0,1193752.0,0.0,40.0,90 days,Today,$5,$4.5,0.7180160984848483,0.6118560606060605,33.0,9.795191451469279,0.0,1.0,,,,,0.0,,,,26,0,0,0,0,0,0,,,1998.0,female,caucasian,Bachelor
4,0.0,4886.0,1280.0,800.0,1280.0,800.0,1509.4369811290567,1509.4369811290567,368.0,35.0,3.0,1201778.0,0.0,40.0,Today,180 days,$1.5,$4,0.72900641025641,0.6378846153846154,39.0,7.981989357347524,0.0,0.0,,,,,0.0,,,,31,0,0,0,0,0,0,,,1998.0,female,caucasian,Bachelor
4,0.0,2904.0,1280.0,800.0,1280.0,800.0,1509.4369811290567,1509.4369811290567,371.0,36.0,3.0,1207849.0,0.0,40.0,30 days,Today,$4,$3.5,0.888485054347826,0.7544021739130432,23.0,7.920110192837465,0.0,1.0,,,,,0.0,,,,22,0,0,0,0,0,0,,,1998.0,female,caucasian,Bachelor
4,0.0,2282.0,1280.0,800.0,1280.0,800.0,1509.4369811290567,1509.4369811290567,374.0,37.0,3.0,1213266.0,0.0,40.0,Today,Tomorrow,$4.5,$5,0.9234374999999999,0.7449999999999997,22.0,9.640666082383873,0.0,0.0,,,,,0.0,,,,22,0,0,0,0,0,0,,,1998.0,female,caucasian,Bachelor
4,0.0,1849.0,1280.0,800.0,1280.0,800.0,1509.4369811290567,1509.4369811290567,377.0,38.0,3.0,1218262.0,0.0,40.0,Today,15 days,$3.5,$4.5,0.7588975694444446,0.6226388888888887,18.0,9.73499188750676,0.0,0.0,,,,,0.0,,,,15,0,0,0,0,0,0,,,1998.0,female,caucasian,Bachelor
4,0.0,2756.0,1280.0,800.0,1280.0,800.0,1509.4369811290567,1509.4369811290567,383.0,40.0,3.0,1229130.0,0.0,38.0,90 days,Today,$5,$1,0.6852384868421054,0.7163157894736841,19.0,6.894049346879536,1.0,1.0,1.0,,,,0.0,,,,14,0,0,0,0,0,0,,,1998.0,female,caucasian,Bachelor
4,0.0,2804.0,1280.0,800.0,1280.0,800.0,1509.4369811290567,1509.4369811290567,387.0,41.0,3.0,1238129.0,0.0,38.0,$5,50 cent,30 days,Today,0.8811266447368423,0.7563815789473681,19.0,6.7760342368045645,1.0,1.0,1.0,30.0,0.0,5.0,0.0,0.0,1.0,1.0,18,0,0,0,0,0,0,,inf,1998.0,female,caucasian,Bachelor
4,0.0,1645.0,1280.0,800.0,1280.0,800.0,1509.4369811290567,1509.4369811290567,390.0,42.0,3.0,1242925.0,0.0,38.0,$5,$2,7 days,Today,0.9234375000000001,0.7449999999999997,18.0,10.94224924012158,1.0,1.0,1.0,7.0,0.0,5.0,0.0,0.0,1.0,1.0,18,0,0,0,0,0,0,,inf,1998.0,female,caucasian,Bachelor
4,0.0,1779.0,1280.0,800.0,1280.0,800.0,1509.4369811290567,1509.4369811290567,393.0,43.0,3.0,1247858.0,0.0,40.0,$2,$4,Today,180 days,0.5823069852941177,0.499264705882353,17.0,9.55593029792018,0.0,0.0,,180.0,0.0,4.0,0.0,0.0,-1.0,1.0,11,0,0,0,0,0,0,,inf,1998.0,female,caucasian,Bachelor
4,0.0,1628.0,1280.0,800.0,1280.0,800.0,1509.4369811290567,1509.4369811290567,396.0,44.0,3.0,1252639.0,0.0,38.0,$4.5,50 cent,30 days,Today,0.5472098214285713,0.7732142857142856,7.0,4.2997542997543,1.0,1.0,1.0,30.0,0.0,4.5,0.0,0.0,1.0,1.0,4,0,0,0,0,0,0,,inf,1998.0,female,caucasian,Bachelor
4,0.0,3077.0,1280.0,800.0,1280.0,800.0,1509.4369811290567,1509.4369811290567,399.0,45.0,3.0,1258815.0,0.0,40.0,$1.5,$5,Today,7 days,0.8868963068181818,0.7548295454545451,22.0,7.149821254468638,0.0,0.0,,7.0,0.0,5.0,0.0,0.0,-1.0,1.0,21,0,0,0,0,0,0,,inf,1998.0,female,caucasian,Bachelor
4,0.0,4177.0,1280.0,800.0,1280.0,800.0,1509.4369811290567,1509.4369811290567,402.0,46.0,3.0,1266179.0,0.0,38.0,$4,$4.5,Today,90 days,0.6824999999999999,0.631285714285714,35.0,8.379219535551831,1.0,0.0,0.0,90.0,0.0,4.5,0.0,0.0,-1.0,1.0,26,0,0,0,0,0,0,,inf,1998.0,female,caucasian,Bachelor
4,0.0,2035.0,1280.0,800.0,1280.0,800.0,1509.4369811290567,1509.4369811290567,405.0,47.0,3.0,1271379.0,0.0,40.0,$2.5,$5,Today,90 days,0.8503551136363637,0.764659090909091,11.0,5.405405405405405,0.0,0.0,,90.0,0.0,5.0,0.0,0.0,-1.0,1.0,10,0,0,0,0,0,0,,inf,1998.0,female,caucasian,Bachelor
4,0.0,1591.0,1280.0,800.0,1280.0,800.0,1509.4369811290567,1509.4369811290567,408.0,48.0,3.0,1276097.0,0.0,40.0,$3.5,$5,Today,7 days,0.9234375000000001,0.7449999999999997,18.0,11.313639220615965,0.0,0.0,,7.0,0.0,5.0,0.0,0.0,-1.0,1.0,18,0,0,0,0,0,0,,inf,1998.0,female,caucasian,Bachelor
4,0.0,1576.0,1280.0,800.0,1280.0,800.0,1509.4369811290567,1509.4369811290567,411.0,49.0,3.0,1280790.0,0.0,40.0,$2,$4,Today,7 days,0.47151041666666677,0.45208333333333334,15.0,9.51776649746193,0.0,0.0,,7.0,0.0,4.0,0.0,0.0,-1.0,1.0,8,0,0,0,0,0,0,,inf,1998.0,female,caucasian,Bachelor
4,0.0,2557.0,1280.0,800.0,1280.0,800.0,1509.4369811290567,1509.4369811290567,414.0,50.0,3.0,1286488.0,0.0,40.0,$4.5,$3,90 days,Today,0.424365234375,0.522578125,16.0,6.257332811888932,0.0,1.0,,90.0,0.0,4.5,0.0,0.0,1.0,1.0,7,0,0,0,0,0,0,,inf,1998.0,female,caucasian,Bachelor
4,0.0,1407.0,1280.0,800.0,1280.0,800.0,1509.4369811290567,1509.4369811290567,417.0,51.0,3.0,1291067.0,0.0,38.0,$5,$2.5,30 days,Today,0.9234375000000002,0.7449999999999999,14.0,9.950248756218905,1.0,1.0,1.0,30.0,0.0,5.0,0.0,0.0,1.0,1.0,14,0,0,0,0,0,0,,inf,1998.0,female,caucasian,Bachelor
4,0.0,1544.0,1280.0,800.0,1280.0,800.0,1509.4369811290567,1509.4369811290567,420.0,52.0,3.0,1295698.0,0.0,38.0,$4.5,$1.5,180 days,Today,0.7719270833333335,0.6556666666666666,15.0,9.715025906735752,1.0,1.0,1.0,180.0,0.0,4.5,0.0,0.0,1.0,1.0,13,0,0,0,0,0,0,,inf,1998.0,female,caucasian,Bachelor
4,0.0,3025.0,1280.0,800.0,1280.0,800.0,1509.4369811290567,1509.4369811290567,423.0,53.0,3.0,1301892.0,0.0,38.0,$3.5,$4,Today,30 days,0.501796875,0.5459999999999999,20.0,6.6115702479338845,1.0,0.0,0.0,30.0,0.0,4.0,0.0,0.0,-1.0,1.0,11,0,0,0,0,0,0,,inf,1998.0,female,caucasian,Bachelor
4,0.0,2245.0,1280.0,800.0,1280.0,800.0,1509.4369811290567,1509.4369811290567,426.0,54.0,3.0,1307251.0,0.0,40.0,$2,$4.5,Today,90 days,0.4495793269230769,0.541923076923077,13.0,5.79064587973274,0.0,0.0,,90.0,0.0,4.5,0.0,0.0,-1.0,1.0,6,0,0,0,0,0,0,,inf,1998.0,female,caucasian,Bachelor
4,0.0,2769.0,1280.0,800.0,1280.0,800.0,1509.4369811290567,1509.4369811290567,429.0,55.0,3.0,1313173.0,0.0,40.0,50 cent,$4.5,Today,90 days,0.8787760416666669,0.7570138888888887,18.0,6.500541711809317,0.0,0.0,,90.0,0.0,4.5,0.0,0.0,-1.0,1.0,17,0,0,0,0,0,0,,inf,1998.0,female,caucasian,Bachelor
4,0.0,2919.0,1280.0,800.0,1280.0,800.0,1509.4369811290567,1509.4369811290567,432.0,56.0,3.0,1319294.0,0.0,40.0,$1.5,$4,Today,15 days,0.888485054347826,0.7544021739130432,23.0,7.879410757108599,0.0,0.0,,15.0,0.0,4.0,0.0,0.0,-1.0,1.0,22,0,0,0,0,0,0,,inf,1998.0,female,caucasian,Bachelor
4,0.0,5265.0,1280.0,800.0,1280.0,800.0,1509.4369811290567,1509.4369811290567,435.0,57.0,3.0,1327682.0,0.0,38.0,$5,$2.5,180 days,Today,0.7360416666666663,0.6565555555555556,45.0,8.547008547008547,1.0,1.0,1.0,180.0,0.0,5.0,0.0,0.0,1.0,1.0,36,0,0,0,0,0,0,,inf,1998.0,female,caucasian,Bachelor
4,0.0,1127.0,1280.0,800.0,1280.0,800.0,1509.4369811290567,1509.4369811290567,438.0,58.0,3.0,1331993.0,0.0,40.0,$1,$4.5,Today,30 days,0.521484375,0.853125,2.0,1.774622892635315,0.0,0.0,,30.0,0.0,4.5,0.0,0.0,-1.0,1.0,1,0,0,0,0,0,0,,inf,1998.0,female,caucasian,Bachelor
4,0.0,1253.0,1280.0,800.0,1280.0,800.0,1509.4369811290567,1509.4369811290567,441.0,59.0,3.0,1336438.0,0.0,38.0,$4.5,$2,30 days,Today,0.9234375000000002,0.7449999999999999,14.0,11.1731843575419,1.0,1.0,1.0,30.0,0.0,4.5,0.0,0.0,1.0,1.0,14,0,0,0,0,0,0,,inf,1998.0,female,caucasian,Bachelor
4,0.0,1288.0,1280.0,800.0,1280.0,800.0,1509.4369811290567,1509.4369811290567,444.0,60.0,3.0,1341191.0,0.0,38.0,$5,$1,15 days,Today,0.4019831730769231,0.40701923076923074,13.0,10.093167701863354,1.0,1.0,1.0,15.0,0.0,5.0,0.0,0.0,1.0,1.0,6,0,0,0,0,0,0,,inf,1998.0,female,caucasian,Bachelor
4,0.0,1844.0,1280.0,800.0,1280.0,800.0,1509.4369811290567,1509.4369811290567,447.0,61.0,3.0,1346195.0,0.0,40.0,$2,$5,Today,90 days,0.8341145833333334,0.7690277777777778,9.0,4.8806941431670285,0.0,0.0,,90.0,0.0,5.0,0.0,0.0,-1.0,1.0,8,0,0,0,0,0,0,,inf,1998.0,female,caucasian,Bachelor
4,0.0,1850.0,1280.0,800.0,1280.0,800.0,1509.4369811290567,1509.4369811290567,450.0,62.0,3.0,1351177.0,0.0,38.0,$4,$4.5,Today,15 days,0.9234375,0.7449999999999997,19.0,10.27027027027027,1.0,0.0,0.0,15.0,0.0,4.5,0.0,0.0,-1.0,1.0,19,0,0,0,0,0,0,,inf,1998.0,female,caucasian,Bachelor
4,0.0,1597.0,1280.0,800.0,1280.0,800.0,1509.4369811290567,1509.4369811290567,453.0,63.0,3.0,1355906.0,0.0,38.0,$5,$2.5,90 days,Today,0.560986328125,0.48390625000000004,16.0,10.018785222291797,1.0,1.0,1.0,90.0,0.0,5.0,0.0,0.0,1.0,1.0,10,0,0,0,0,0,0,,inf,1998.0,female,caucasian,Bachelor
4,0.0,1562.0,1280.0,800.0,1280.0,800.0,1509.4369811290567,1509.4369811290567,456.0,64.0,3.0,1360628.0,0.0,40.0,$2,$4.5,Today,15 days,0.789453125,0.7810416666666667,6.0,3.8412291933418694,0.0,0.0,,15.0,0.0,4.5,0.0,0.0,-1.0,1.0,5,0,0,0,0,0,0,,inf,1998.0,female,caucasian,Bachelor
4,0.0,1141.0,1280.0,800.0,1280.0,800.0,1509.4369811290567,1509.4369811290567,459.0,65.0,3.0,1364894.0,0.0,40.0,$2,$5,Today,15 days,0.9234375000000002,0.7449999999999999,13.0,11.393514460999123,0.0,0.0,,15.0,0.0,5.0,0.0,0.0,-1.0,1.0,13,0,0,0,0,0,0,,inf,1998.0,female,caucasian,Bachelor
4,0.0,1172.0,1280.0,800.0,1280.0,800.0,1509.4369811290567,1509.4369811290567,462.0,66.0,3.0,1369728.0,0.0,40.0,$1.5,$4,Today,7 days,0.3585286458333334,0.37885416666666666,12.0,10.238907849829351,0.0,0.0,,7.0,0.0,4.0,0.0,0.0,-1.0,1.0,5,0,0,0,0,0,0,,inf,1998.0,female,caucasian,Bachelor
4,0.0,1897.0,1280.0,800.0,1280.0,800.0,1509.4369811290567,1509.4369811290567,465.0,67.0,3.0,1374796.0,0.0,38.0,$5,$3,90 days,Today,0.8430468750000001,0.766625,10.0,5.271481286241434,1.0,1.0,1.0,90.0,0.0,5.0,0.0,0.0,1.0,1.0,9,0,0,0,0,0,0,,inf,1998.0,female,caucasian,Bachelor
4,0.0,2064.0,1280.0,800.0,1280.0,800.0,1509.4369811290567,1509.4369811290567,468.0,68.0,3.0,1380017.0,0.0,40.0,$4,$3,30 days,Today,0.9234375,0.7449999999999997,20.0,9.689922480620154,0.0,1.0,,30.0,0.0,4.0,0.0,0.0,1.0,1.0,20,0,0,0,0,0,0,,inf,1998.0,female,caucasian,Bachelor
4,0.0,1857.0,1280.0,800.0,1280.0,800.0,1509.4369811290567,1509.4369811290567,471.0,69.0,3.0,1385036.0,0.0,38.0,$3.5,$4.5,Today,90 days,0.655685763888889,0.5249305555555555,18.0,9.693053311793214,1.0,0.0,0.0,90.0,0.0,4.5,0.0,0.0,-1.0,1.0,13,0,0,0,0,0,0,,inf,1998.0,female,caucasian,Bachelor
4,0.0,1589.0,1280.0,800.0,1280.0,800.0,1509.4369811290567,1509.4369811290567,474.0,70.0,3.0,1389765.0,0.0,38.0,$4.5,$3,30 days,Today,0.32122395833333334,0.741875,6.0,3.775959723096287,1.0,1.0,1.0,30.0,0.0,4.5,0.0,0.0,1.0,1.0,2,0,0,0,0,0,0,,inf,1998.0,female,caucasian,Bachelor
4,0.0,2871.0,1280.0,800.0,1280.0,800.0,1509.4369811290567,1509.4369811290567,477.0,71.0,3.0,1395812.0,0.0,40.0,$1,$5,Today,180 days,0.8832421875000002,0.7558124999999997,20.0,6.966213862765587,0.0,0.0,,180.0,0.0,5.0,0.0,0.0,-1.0,1.0,19,0,0,0,0,0,0,,inf,1998.0,female,caucasian,Bachelor
4,0.0,1870.0,1280.0,800.0,1280.0,800.0,1509.4369811290567,1509.4369811290567,480.0,72.0,3.0,1400876.0,0.0,40.0,$4,$3,180 days,Today,0.9234374999999999,0.7449999999999997,21.0,11.229946524064172,0.0,1.0,,180.0,0.0,4.0,0.0,0.0,1.0,1.0,21,0,0,0,0,0,0,,inf,1998.0,female,caucasian,Bachelor
4,0.0,1608.0,1280.0,800.0,1280.0,800.0,1509.4369811290567,1509.4369811290567,483.0,73.0,3.0,1405597.0,0.0,40.0,$4.5,$5,Today,Tomorrow,0.7259895833333335,0.5981666666666666,15.0,9.328358208955224,0.0,0.0,,1.0,0.0,5.0,0.0,0.0,-1.0,1.0,12,0,0,0,0,0,0,,inf,1998.0,female,caucasian,Bachelor
4,0.0,1701.0,1280.0,800.0,1280.0,800.0,1509.4369811290567,1509.4369811290567,486.0,74.0,3.0,1410404.0,0.0,38.0,$4,$2,30 days,Today,0.35771484374999996,0.6768750000000001,8.0,4.703115814226925,1.0,1.0,1.0,30.0,0.0,4.0,0.0,0.0,1.0,1.0,3,0,0,0,0,0,0,,inf,1998.0,female,caucasian,Bachelor
4,0.0,2715.0,1280.0,800.0,1280.0,800.0,1509.4369811290567,1509.4369811290567,489.0,75.0,3.0,1416272.0,0.0,38.0,$4.5,$4,15 days,Today,0.8811266447368423,0.7563815789473681,19.0,6.998158379373849,1.0,1.0,1.0,15.0,0.0,4.5,0.0,0.0,1.0,1.0,18,0,0,0,0,0,0,,inf,1998.0,female,caucasian,Bachelor
4,0.0,1254.0,1280.0,800.0,1280.0,800.0,1509.4369811290567,1509.4369811290567,492.0,76.0,3.0,1420733.0,0.0,40.0,$3,$5,Today,7 days,0.9234375000000002,0.7449999999999999,14.0,11.164274322169058,0.0,0.0,,7.0,0.0,5.0,0.0,0.0,-1.0,1.0,14,0,0,0,0,0,0,,inf,1998.0,female,caucasian,Bachelor
4,0.0,1344.0,1280.0,800.0,1280.0,800.0,1509.4369811290567,1509.4369811290567,495.0,77.0,3.0,1425541.0,0.0,40.0,$5,$4.5,15 days,Today,0.4019831730769231,0.40701923076923074,13.0,9.672619047619047,0.0,1.0,,15.0,0.0,5.0,0.0,0.0,1.0,1.0,6,0,0,0,0,0,0,,inf,1998.0,female,caucasian,Bachelor
4,0.0,1965.0,1280.0,800.0,1280.0,800.0,1509.4369811290567,1509.4369811290567,498.0,78.0,3.0,1430690.0,0.0,38.0,$3.5,$4,Today,180 days,0.758046875,0.7863749999999999,10.0,5.089058524173028,1.0,0.0,0.0,180.0,0.0,4.0,0.0,0.0,-1.0,1.0,8,0,0,0,0,0,0,,inf,1998.0,female,caucasian,Bachelor
4,0.0,1660.0,1280.0,800.0,1280.0,800.0,1509.4369811290567,1509.4369811290567,501.0,79.0,3.0,1435448.0,0.0,38.0,$4.5,$1.5,15 days,Today,0.9234375000000002,0.7449999999999998,17.0,10.240963855421686,1.0,1.0,1.0,15.0,0.0,4.5,0.0,0.0,1.0,1.0,17,0,0,0,0,0,0,,inf,1998.0,female,caucasian,Bachelor
4,0.0,2680.0,1280.0,800.0,1280.0,800.0,1509.4369811290567,1509.4369811290567,504.0,80.0,3.0,1441269.0,0.0,38.0,$4.5,$1.5,7 days,Today,0.6896821120689655,0.5934913793103446,29.0,10.82089552238806,1.0,1.0,1.0,7.0,0.0,4.5,0.0,0.0,1.0,1.0,22,0,0,0,0,0,0,,inf,1998.0,female,caucasian,Bachelor
8,1.0,4391.0,1536.0,864.0,1536.0,864.0,1762.3257360658386,1762.3257360658386,142.0,1.0,2.0,510501.0,1.0,38.0,$5,$1,15 days,Today,0.5218302408854162,0.3460467303240735,64.0,14.575267592803462,1.0,1.0,1.0,5.0,1.0,15.0,0.0,1.0,-0.8333333333333334,0.08333333333333333,41,4,1,0,0,1,1,0.6,0.26666666666666666,1961.0,male,caucasian,college
8,1.0,4845.0,1536.0,864.0,1536.0,864.0,1762.3257360658386,1762.3257360658386,145.0,2.0,2.0,518480.0,1.0,40.0,$1,$4.5,Today,15 days,0.4973408157276989,0.4465473395931138,71.0,14.654282765737873,0.0,0.0,,4.5,1.0,15.0,0.0,1.0,0.07692307692307693,-0.1282051282051282,27,2,0,1,4,4,1,0.09090909090909091,0.23333333333333334,1961.0,male,caucasian,college
8,1.0,4530.0,1536.0,864.0,1536.0,864.0,1762.3257360658386,1762.3257360658386,148.0,3.0,2.0,526110.0,1.0,38.0,$4.5,$5,Today,180 days,0.4983132102272721,0.36831860269360217,66.0,14.56953642384106,1.0,0.0,0.0,5.0,4.5,180.0,0.0,1.0,0.7073170731707317,-0.07317073170731707,33,1,1,1,2,1,2,0.2,0.0006172839506172843,1961.0,male,caucasian,college
8,1.0,2948.0,1536.0,864.0,1536.0,864.0,1762.3257360658386,1762.3257360658386,151.0,4.0,2.0,532151.0,1.0,38.0,$5,$2.5,7 days,Today,0.5010749757751932,0.3802756244616706,43.0,14.58616010854817,1.0,1.0,1.0,5.0,2.5,7.0,0.0,1.0,-0.76,0.04,20,2,0,1,1,1,0,0.2,0.14285714285714285,1961.0,male,caucasian,college
8,1.0,3611.0,1536.0,864.0,1536.0,864.0,1762.3257360658386,1762.3257360658386,154.0,5.0,2.0,538871.0,1.0,40.0,$2,$5,Today,90 days,0.4851707175925921,0.45906207133058946,54.0,14.954306286347272,0.0,0.0,,5.0,2.0,90.0,0.0,1.0,0.05263157894736842,-0.05263157894736842,30,2,0,2,2,2,0,0.0,0.016666666666666666,1961.0,male,caucasian,college
8,1.0,2216.0,1536.0,864.0,1536.0,864.0,1762.3257360658386,1762.3257360658386,157.0,6.0,2.0,544235.0,1.0,40.0,$2,$5,Today,7 days,0.4130563446969695,0.4541245791245787,33.0,14.891696750902527,0.0,0.0,,5.0,2.0,7.0,0.0,1.0,0.4444444444444444,0.0,12,1,0,1,1,3,0,-0.3333333333333333,0.21428571428571427,1961.0,male,caucasian,college
8,1.0,2619.0,1536.0,864.0,1536.0,864.0,1762.3257360658386,1762.3257360658386,160.0,7.0,2.0,549948.0,1.0,38.0,$4.5,$1.5,180 days,Today,0.4822048611111107,0.39117155349794197,36.0,13.745704467353951,1.0,1.0,1.0,4.5,1.5,180.0,0.0,1.0,-0.7142857142857143,0.14285714285714285,17,2,1,1,0,0,0,0.3333333333333333,0.011111111111111112,1961.0,male,caucasian,college
8,1.0,2748.0,1536.0,864.0,1536.0,864.0,1762.3257360658386,1762.3257360658386,163.0,8.0,2.0,555798.0,1.0,40.0,$4.5,$5,Today,90 days,0.46422446646341436,0.387900858175248,41.0,14.919941775836973,0.0,0.0,,5.0,4.5,90.0,0.0,1.0,0.68,0.04,21,0,0,1,2,0,1,0.3333333333333333,0.0012345679012345685,1961.0,male,caucasian,college
8,1.0,2526.0,1536.0,864.0,1536.0,864.0,1762.3257360658386,1762.3257360658386,166.0,9.0,2.0,561475.0,1.0,38.0,$4.5,$4,90 days,Today,0.4684523809523806,0.3851190476190472,35.0,13.855898653998416,1.0,1.0,1.0,4.5,4.0,90.0,0.0,1.0,-0.6842105263157895,0.15789473684210525,15,2,1,1,0,0,0,0.3333333333333333,0.001388888888888889,1961.0,male,caucasian,college
8,1.0,1576.0,1536.0,864.0,1536.0,864.0,1762.3257360658386,1762.3257360658386,169.0,10.0,2.0,566148.0,1.0,38.0,$5,$4.5,30 days,Today,0.45060961174242403,0.337910353535353,22.0,13.959390862944163,1.0,1.0,1.0,5.0,4.5,30.0,0.0,1.0,-1.0,0.0,13,1,0,0,0,0,0,1.0,0.003703703703703705,1961.0,male,caucasian,college
8,1.0,1524.0,1536.0,864.0,1536.0,864.0,1762.3257360658386,1762.3257360658386,172.0,11.0,2.0,570777.0,1.0,40.0,$1.5,$4,Today,30 days,0.5041133996212118,0.3565340909090905,22.0,14.435695538057743,0.0,0.0,,4.0,1.5,30.0,0.0,1.0,0.8333333333333334,0.16666666666666666,9,0,0,1,1,0,1,0.0,0.05555555555555555,1961.0,male,caucasian,college
8,1.0,2079.0,1536.0,864.0,1536.0,864.0,1762.3257360658386,1762.3257360658386,175.0,12.0,2.0,575942.0,1.0,38.0,$5,$1.5,180 days,Today,0.49715711805555524,0.35763888888888845,30.0,14.43001443001443,1.0,1.0,1.0,5.0,1.5,180.0,0.0,1.0,-0.8,0.0,15,2,1,2,0,0,0,0.0,0.012962962962962964,1961.0,male,caucasian,college
8,1.0,1933.0,1536.0,864.0,1536.0,864.0,1762.3257360658386,1762.3257360658386,178.0,13.0,2.0,580968.0,1.0,38.0,$5,$4.5,7 days,Today,0.5022183641975305,0.36252572016460854,27.0,13.96792550439731,1.0,1.0,1.0,5.0,4.5,7.0,0.0,1.0,-1.0,-0.14285714285714285,12,2,0,0,0,0,0,1.0,0.01587301587301588,1961.0,male,caucasian,college
8,1.0,3103.0,1536.0,864.0,1536.0,864.0,1762.3257360658386,1762.3257360658386,181.0,14.0,2.0,587179.0,1.0,38.0,$4,$3,7 days,Today,0.4716655344202893,0.303819444444444,46.0,14.824363519174993,1.0,1.0,1.0,4.0,3.0,7.0,0.0,1.0,-0.7931034482758621,0.034482758620689655,20,4,0,3,0,1,1,0.0,0.04761904761904761,1961.0,male,caucasian,college
8,1.0,3400.0,1536.0,864.0,1536.0,864.0,1762.3257360658386,1762.3257360658386,184.0,15.0,2.0,593705.0,1.0,38.0,$4,$3,Tomorrow,Today,0.5280073116987173,0.29943465099715055,52.0,15.294117647058824,1.0,1.0,1.0,4.0,3.0,1.0,0.0,1.0,-1.0,-0.3333333333333333,28,5,0,0,0,0,0,1.0,0.33333333333333326,1961.0,male,caucasian,college
8,1.0,2267.0,1536.0,864.0,1536.0,864.0,1762.3257360658386,1762.3257360658386,187.0,16.0,2.0,599106.0,1.0,38.0,$4.5,$3.5,7 days,Today,0.4390190972222219,0.3582702020202016,33.0,14.556682840758713,1.0,1.0,1.0,4.5,3.5,7.0,0.0,1.0,-0.7777777777777778,0.1111111111111111,13,2,1,2,0,0,0,0.0,0.040816326530612256,1961.0,male,caucasian,college
8,1.0,2327.0,1536.0,864.0,1536.0,864.0,1762.3257360658386,1762.3257360658386,190.0,17.0,2.0,604598.0,1.0,38.0,$4.5,$1.5,15 days,Today,0.5372080176767672,0.33298260381593664,33.0,14.181349376880103,1.0,1.0,1.0,4.5,1.5,15.0,0.0,1.0,-0.8,-0.2,17,1,0,0,0,1,1,0.0,0.13333333333333333,1961.0,male,caucasian,college
8,1.0,2164.0,1536.0,864.0,1536.0,864.0,1762.3257360658386,1762.3257360658386,193.0,18.0,2.0,609849.0,1.0,40.0,$3.5,$4.5,Today,30 days,0.43223248106060563,0.4052328843995505,33.0,15.249537892791128,0.0,0.0,,4.5,3.5,30.0,0.0,1.0,0.6,0.3,15,0,0,1,1,2,1,-0.5,0.009523809523809526,1961.0,male,caucasian,college
8,1.0,1795.0,1536.0,864.0,1536.0,864.0,1762.3257360658386,1762.3257360658386,196.0,19.0,2.0,614744.0,1.0,38.0,$5,$2.5,30 days,Today,0.5224358974358971,0.2773326210826205,26.0,14.484679665738161,1.0,1.0,1.0,5.0,2.5,30.0,0.0,1.0,-1.0,-0.06666666666666667,13,2,0,0,0,0,0,1.0,0.03333333333333333,1961.0,male,caucasian,college
8,1.0,1849.0,1536.0,864.0,1536.0,864.0,1762.3257360658386,1762.3257360658386,199.0,20.0,2.0,619703.0,1.0,40.0,$3.5,$4.5,Today,15 days,0.43605324074074053,0.36848422496570593,27.0,14.60248783126014,0.0,0.0,,4.5,3.5,15.0,0.0,1.0,0.47368421052631576,0.3684210526315789,15,0,0,0,1,2,1,-0.3333333333333333,0.019047619047619053,1961.0,male,caucasian,college
8,1.0,2245.0,1536.0,864.0,1536.0,864.0,1762.3257360658386,1762.3257360658386,202.0,21.0,2.0,625050.0,1.0,38.0,$5,50 cent,180 days,Today,0.4237467447916662,0.3641131365740736,32.0,14.25389755011136,1.0,1.0,1.0,5.0,0.5,180.0,0.0,1.0,-0.8,0.1,16,2,1,1,0,0,0,0.3333333333333333,0.05,1961.0,male,caucasian,college
8,1.0,2153.0,1536.0,864.0,1536.0,864.0,1762.3257360658386,1762.3257360658386,205.0,22.0,2.0,630300.0,1.0,40.0,$2,$4,Today,7 days,0.42601996527777747,0.3984182098765428,30.0,13.934045517882025,0.0,0.0,,4.0,2.0,7.0,0.0,1.0,0.6666666666666666,0.3333333333333333,14,0,0,1,0,2,1,-1.0,0.14285714285714285,1961.0,male,caucasian,college
8,1.0,2292.0,1536.0,864.0,1536.0,864.0,1762.3257360658386,1762.3257360658386,208.0,23.0,2.0,635670.0,1.0,40.0,$3.5,$5,Today,15 days,0.4255247790404037,0.3762626262626259,33.0,14.397905759162304,0.0,0.0,,5.0,3.5,15.0,0.0,1.0,1.0,0.5294117647058824,15,0,0,0,2,0,0,1.0,0.028571428571428574,1961.0,male,caucasian,college
8,1.0,1838.0,1536.0,864.0,1536.0,864.0,1762.3257360658386,1762.3257360658386,211.0,24.0,2.0,640626.0,1.0,40.0,$2,$4.5,Today,15 days,0.487229567307692,0.36569622507122457,26.0,14.145810663764962,0.0,0.0,,4.5,2.0,15.0,0.0,1.0,0.6470588235294118,0.29411764705882354,15,0,0,0,1,0,1,1.0,0.08333333333333333,1961.0,male,caucasian,college
8,1.0,1478.0,1536.0,864.0,1536.0,864.0,1762.3257360658386,1762.3257360658386,214.0,25.0,2.0,645260.0,1.0,40.0,$2,$5,Today,30 days,0.44759114583333304,0.38969907407407367,20.0,13.531799729364005,0.0,0.0,,5.0,2.0,30.0,0.0,1.0,0.5714285714285714,0.2857142857142857,10,1,0,1,2,0,0,0.5,0.05,1961.0,male,caucasian,college
8,1.0,2653.0,1536.0,864.0,1536.0,864.0,1762.3257360658386,1762.3257360658386,217.0,26.0,2.0,651018.0,1.0,38.0,$4,$1.5,7 days,Today,0.4965277777777772,0.3641678537511866,39.0,14.700339238597813,1.0,1.0,1.0,4.0,1.5,7.0,0.0,1.0,-0.84,-0.04,19,2,1,1,0,2,0,-0.2,0.23809523809523808,1961.0,male,caucasian,college
8,1.0,2116.0,1536.0,864.0,1536.0,864.0,1762.3257360658386,1762.3257360658386,220.0,27.0,2.0,656235.0,1.0,38.0,$4.5,$3,180 days,Today,0.42483618951612867,0.39083034647550735,31.0,14.650283553875237,1.0,1.0,1.0,4.5,3.0,180.0,0.0,1.0,-0.7142857142857143,0.14285714285714285,17,1,0,1,1,1,0,0.0,0.002777777777777778,1961.0,male,caucasian,college
8,1.0,1383.0,1536.0,864.0,1536.0,864.0,1762.3257360658386,1762.3257360658386,223.0,28.0,2.0,660715.0,1.0,40.0,$1.5,$5,Today,15 days,0.4422200520833329,0.40202546296296254,20.0,14.461315979754158,0.0,0.0,,5.0,1.5,15.0,0.0,1.0,0.7142857142857143,0.42857142857142855,10,0,0,1,2,0,1,0.3333333333333333,0.15555555555555556,1961.0,male,caucasian,college
8,1.0,1502.0,1536.0,864.0,1536.0,864.0,1762.3257360658386,1762.3257360658386,226.0,29.0,2.0,665344.0,1.0,38.0,$4,$2.5,180 days,Today,0.5139086174242421,0.4119318181818176,22.0,14.647137150466046,1.0,1.0,1.0,4.0,2.5,180.0,0.0,1.0,-0.625,-0.125,13,1,1,1,0,0,0,0.0,0.003333333333333334,1961.0,male,caucasian,college
8,1.0,3804.0,1536.0,864.0,1536.0,864.0,1762.3257360658386,1762.3257360658386,229.0,30.0,2.0,672256.0,1.0,38.0,$5,$4.5,Tomorrow,Today,0.5468517485119041,0.3784515542328037,56.0,14.721345951629864,1.0,1.0,1.0,5.0,4.5,1.0,0.0,1.0,-0.4838709677419355,-0.03225806451612903,25,1,1,2,1,1,0,-0.2,0.11111111111111116,1961.0,male,caucasian,college
8,1.0,2245.0,1536.0,864.0,1536.0,864.0,1762.3257360658386,1762.3257360658386,232.0,31.0,2.0,677601.0,1.0,40.0,$3,$4,Today,180 days,0.4031207997311823,0.37802419354838673,31.0,13.808463251670378,0.0,0.0,,4.0,3.0,180.0,0.0,1.0,0.8823529411764706,0.6470588235294118,14,0,1,0,1,1,0,0.0,0.0018518518518518515,1961.0,male,caucasian,college
8,1.0,2210.0,1536.0,864.0,1536.0,864.0,1762.3257360658386,1762.3257360658386,235.0,32.0,2.0,682958.0,1.0,38.0,$4,$2,90 days,Today,0.41178385416666613,0.46061197916666624,32.0,14.479638009049774,1.0,1.0,1.0,4.0,2.0,90.0,0.0,1.0,-0.2631578947368421,0.3684210526315789,15,1,0,1,1,1,0,0.0,0.011111111111111112,1961.0,male,caucasian,college
8,1.0,1650.0,1536.0,864.0,1536.0,864.0,1762.3257360658386,1762.3257360658386,238.0,33.0,2.0,687724.0,1.0,40.0,$4,$5,Today,90 days,0.5003906249999999,0.4501388888888884,25.0,15.151515151515152,0.0,0.0,,5.0,4.0,90.0,0.0,1.0,0.5384615384615384,0.23076923076923078,10,1,0,1,1,0,0,0.3333333333333333,0.002777777777777778,1961.0,male,caucasian,college
8,1.0,1577.0,1536.0,864.0,1536.0,864.0,1762.3257360658386,1762.3257360658386,241.0,34.0,2.0,692454.0,1.0,40.0,$2.5,$4,Today,90 days,0.46666124131944414,0.47173996913580196,24.0,15.218769816106532,0.0,0.0,,4.0,2.5,90.0,0.0,1.0,0.07692307692307693,0.07692307692307693,8,1,0,2,1,1,0,-0.2,0.006666666666666668,1961.0,male,caucasian,college
8,1.0,1961.0,1536.0,864.0,1536.0,864.0,1762.3257360658386,1762.3257360658386,244.0,35.0,2.0,697538.0,1.0,38.0,$4,$2.5,15 days,Today,0.5085117669753082,0.4007630315500681,27.0,13.768485466598674,1.0,1.0,1.0,4.0,2.5,15.0,0.0,1.0,-0.5555555555555556,0.1111111111111111,16,1,1,0,0,0,0,1.0,0.04000000000000001,1961.0,male,caucasian,college
8,1.0,1618.0,1536.0,864.0,1536.0,864.0,1762.3257360658386,1762.3257360658386,247.0,36.0,2.0,702269.0,1.0,40.0,$4,$4.5,Today,90 days,0.4907497829861109,0.42645640432098714,24.0,14.833127317676144,0.0,0.0,,4.5,4.0,90.0,0.0,1.0,0.5,0.0,13,1,0,0,1,1,0,0.3333333333333333,0.001388888888888889,1961.0,male,caucasian,college
8,1.0,1272.0,1536.0,864.0,1536.0,864.0,1762.3257360658386,1762.3257360658386,250.0,37.0,2.0,706694.0,1.0,40.0,50 cent,$5,Today,30 days,0.3120298032407405,0.39686213991769503,18.0,14.150943396226415,0.0,0.0,,5.0,0.5,30.0,0.0,1.0,0.6,1.0,9,0,0,1,0,0,0,-1.0,0.3,1961.0,male,caucasian,college
8,1.0,1415.0,1536.0,864.0,1536.0,864.0,1762.3257360658386,1762.3257360658386,253.0,38.0,2.0,711211.0,1.0,38.0,$5,$2,90 days,Today,0.46230468749999964,0.34594907407407377,20.0,14.134275618374557,1.0,1.0,1.0,5.0,2.0,90.0,0.0,1.0,-1.0,0.16666666666666666,11,1,0,0,0,0,0,1.0,0.016666666666666666,1961.0,male,caucasian,college
8,1.0,1276.0,1536.0,864.0,1536.0,864.0,1762.3257360658386,1762.3257360658386,256.0,39.0,2.0,715617.0,1.0,38.0,$5,$1,30 days,Today,0.4852068865740736,0.37866512345678977,18.0,14.106583072100314,1.0,1.0,1.0,5.0,1.0,30.0,0.0,1.0,-0.7333333333333333,0.06666666666666667,13,1,0,1,0,0,0,0.0,0.13333333333333333,1961.0,male,caucasian,college
8,1.0,1420.0,1536.0,864.0,1536.0,864.0,1762.3257360658386,1762.3257360658386,259.0,40.0,2.0,720150.0,1.0,40.0,$1.5,$4,Today,180 days,0.5177494517543857,0.33924220272904443,19.0,13.380281690140846,0.0,0.0,,4.0,1.5,180.0,0.0,1.0,0.5384615384615384,-0.07692307692307693,9,0,0,1,1,1,1,-0.3333333333333333,0.009259259259259259,1961.0,male,caucasian,college
8,1.0,3995.0,1536.0,864.0,1536.0,864.0,1762.3257360658386,1762.3257360658386,263.0,41.0,2.0,730273.0,1.0,40.0,Today,180 days,50 cent,$4.5,0.4883680555555547,0.4286844135802464,60.0,15.018773466833542,0.0,0.0,,,,,0.0,,,,37,0,0,0,0,0,0,,,1961.0,male,caucasian,college
8,1.0,1969.0,1536.0,864.0,1536.0,864.0,1762.3257360658386,1762.3257360658386,266.0,42.0,2.0,735336.0,1.0,38.0,180 days,Today,$4,$3.5,0.5066550925925922,0.39274691358024644,27.0,13.712544438801421,1.0,1.0,1.0,,,,0.0,,,,16,0,0,0,0,0,0,,,1961.0,male,caucasian,college
8,1.0,1913.0,1536.0,864.0,1536.0,864.0,1762.3257360658386,1762.3257360658386,269.0,43.0,2.0,740411.0,1.0,40.0,Today,7 days,$4,$5,0.4072730654761902,0.43026620370370333,28.0,14.636696288552013,0.0,0.0,,,,,0.0,,,,20,0,0,0,0,0,0,,,1961.0,male,caucasian,college
8,1.0,1844.0,1536.0,864.0,1536.0,864.0,1762.3257360658386,1762.3257360658386,272.0,44.0,2.0,745375.0,1.0,40.0,Today,90 days,$3.5,$5,0.5214120370370366,0.424211248285322,27.0,14.642082429501084,0.0,0.0,,,,,0.0,,,,17,0,0,0,0,0,0,,,1961.0,male,caucasian,college
8,1.0,1341.0,1536.0,864.0,1536.0,864.0,1762.3257360658386,1762.3257360658386,275.0,45.0,2.0,749828.0,1.0,38.0,180 days,Today,$4.5,$1.5,0.46974369517543824,0.3639741715399605,19.0,14.168530947054437,1.0,1.0,1.0,,,,0.0,,,,10,0,0,0,0,0,0,,,1961.0,male,caucasian,college
8,1.0,1492.0,1536.0,864.0,1536.0,864.0,1762.3257360658386,1762.3257360658386,278.0,46.0,2.0,754441.0,1.0,38.0,90 days,Today,$5,$2,0.48961292613636337,0.34506523569023523,22.0,14.745308310991957,1.0,1.0,1.0,,,,0.0,,,,11,0,0,0,0,0,0,,,1961.0,male,caucasian,college
8,1.0,1364.0,1536.0,864.0,1536.0,864.0,1762.3257360658386,1762.3257360658386,281.0,47.0,2.0,758942.0,1.0,40.0,Today,180 days,$1,$4.5,0.4572591145833331,0.3913773148148142,20.0,14.662756598240469,0.0,0.0,,,,,0.0,,,,10,0,0,0,0,0,0,,,1961.0,male,caucasian,college
8,1.0,1137.0,1536.0,864.0,1536.0,864.0,1762.3257360658386,1762.3257360658386,284.0,48.0,2.0,763175.0,1.0,38.0,30 days,Today,$5,$1,0.4428304036458331,0.27589699074074037,16.0,14.07211961301671,1.0,1.0,1.0,,,,0.0,,,,10,0,0,0,0,0,0,,,1961.0,male,caucasian,college
8,1.0,1206.0,1536.0,864.0,1536.0,864.0,1762.3257360658386,1762.3257360658386,287.0,49.0,2.0,767458.0,1.0,40.0,Today,Tomorrow,$3,$4,0.37430826822916635,0.3491030092592589,16.0,13.266998341625207,0.0,0.0,,,,,0.0,,,,7,0,0,0,0,0,0,,,1961.0,male,caucasian,college
8,1.0,1110.0,1536.0,864.0,1536.0,864.0,1762.3257360658386,1762.3257360658386,290.0,50.0,2.0,771671.0,1.0,38.0,180 days,Today,$5,$3,0.37854003906249967,0.3719618055555552,16.0,14.414414414414415,1.0,1.0,1.0,,,,0.0,,,,10,0,0,0,0,0,0,,,1961.0,male,caucasian,college
8,1.0,1550.0,1536.0,864.0,1536.0,864.0,1762.3257360658386,1762.3257360658386,293.0,51.0,2.0,776344.0,1.0,38.0,30 days,Today,$4,50 cent,0.3730172821969694,0.5015782828282824,22.0,14.193548387096774,1.0,1.0,1.0,,,,0.0,,,,13,0,0,0,0,0,0,,,1961.0,male,caucasian,college
8,1.0,1742.0,1536.0,864.0,1536.0,864.0,1762.3257360658386,1762.3257360658386,296.0,52.0,2.0,781243.0,1.0,40.0,Today,15 days,$2,$5,0.3704427083333331,0.4850427350427346,26.0,14.925373134328359,0.0,0.0,,,,,0.0,,,,16,0,0,0,0,0,0,,,1961.0,male,caucasian,college
8,1.0,1790.0,1536.0,864.0,1536.0,864.0,1762.3257360658386,1762.3257360658386,299.0,53.0,2.0,786166.0,1.0,38.0,7 days,Today,$4.5,$3,0.4131610576923074,0.4494747150997148,26.0,14.525139664804469,1.0,1.0,1.0,,,,0.0,,,,13,0,0,0,0,0,0,,,1961.0,male,caucasian,college
8,1.0,1286.0,1536.0,864.0,1536.0,864.0,1762.3257360658386,1762.3257360658386,302.0,54.0,2.0,790600.0,1.0,38.0,30 days,Today,$4,$2,0.4065031828703701,0.4212319958847732,18.0,13.996889580093313,1.0,1.0,1.0,,,,0.0,,,,11,0,0,0,0,0,0,,,1961.0,male,caucasian,college
8,1.0,1506.0,1536.0,864.0,1536.0,864.0,1762.3257360658386,1762.3257360658386,305.0,55.0,2.0,795254.0,1.0,38.0,90 days,Today,$4,$2,0.4570312499999995,0.4393939393939389,22.0,14.608233731739707,1.0,1.0,1.0,,,,0.0,,,,16,0,0,0,0,0,0,,,1961.0,male,caucasian,college
8,1.0,2365.0,1536.0,864.0,1536.0,864.0,1762.3257360658386,1762.3257360658386,308.0,56.0,2.0,800775.0,1.0,38.0,7 days,Today,$5,$4,0.47571997549019557,0.4756944444444439,34.0,14.376321353065538,1.0,1.0,1.0,,,,0.0,,,,21,0,0,0,0,0,0,,,1961.0,male,caucasian,college
8,1.0,1893.0,1536.0,864.0,1536.0,864.0,1762.3257360658386,1762.3257360658386,311.0,57.0,2.0,805807.0,1.0,38.0,7 days,Today,$4,$3.5,0.45269845545976967,0.452187100893997,29.0,15.31959852086635,1.0,1.0,1.0,,,,0.0,,,,13,0,0,0,0,0,0,,,1961.0,male,caucasian,college
8,1.0,1795.0,1536.0,864.0,1536.0,864.0,1762.3257360658386,1762.3257360658386,314.0,58.0,2.0,810724.0,1.0,40.0,Today,7 days,$2,$5,0.48550180288461503,0.40219907407407357,26.0,14.484679665738161,0.0,0.0,,,,,0.0,,,,16,0,0,0,0,0,0,,,1961.0,male,caucasian,college
8,1.0,1924.0,1536.0,864.0,1536.0,864.0,1762.3257360658386,1762.3257360658386,317.0,59.0,2.0,815741.0,1.0,38.0,90 days,Today,$5,$1,0.4732840401785712,0.42158564814814764,28.0,14.553014553014552,1.0,1.0,1.0,,,,0.0,,,,10,0,0,0,0,0,0,,,1961.0,male,caucasian,college
8,1.0,1182.0,1536.0,864.0,1536.0,864.0,1762.3257360658386,1762.3257360658386,320.0,60.0,2.0,820021.0,1.0,38.0,180 days,Today,$4.5,$3.5,0.42026654411764686,0.37282135076252665,17.0,14.382402707275803,1.0,1.0,1.0,,,,0.0,,,,13,0,0,0,0,0,0,,,1961.0,male,caucasian,college
8,1.0,1657.0,1536.0,864.0,1536.0,864.0,1762.3257360658386,1762.3257360658386,323.0,61.0,2.0,824812.0,1.0,40.0,Today,15 days,$2.5,$4.5,0.4332552083333329,0.47495370370370316,25.0,15.087507543753771,0.0,0.0,,,,,0.0,,,,14,0,0,0,0,0,0,,,1961.0,male,caucasian,college
8,1.0,1596.0,1536.0,864.0,1536.0,864.0,1762.3257360658386,1762.3257360658386,326.0,62.0,2.0,829555.0,1.0,40.0,Today,30 days,$2.5,$5,0.42401801215277746,0.446228780864197,24.0,15.037593984962406,0.0,0.0,,,,,0.0,,,,11,0,0,0,0,0,0,,,1961.0,male,caucasian,college
8,1.0,2014.0,1536.0,864.0,1536.0,864.0,1762.3257360658386,1762.3257360658386,329.0,63.0,2.0,834662.0,1.0,38.0,180 days,Today,$4,50 cent,0.4685174851190471,0.383887235449735,28.0,13.902681231380338,1.0,1.0,1.0,,,,0.0,,,,19,0,0,0,0,0,0,,,1961.0,male,caucasian,college
8,1.0,1314.0,1536.0,864.0,1536.0,864.0,1762.3257360658386,1762.3257360658386,332.0,64.0,2.0,839075.0,1.0,38.0,15 days,Today,$4.5,$2.5,0.49328399122806993,0.39169103313840126,19.0,14.459665144596652,1.0,1.0,1.0,,,,0.0,,,,9,0,0,0,0,0,0,,,1961.0,male,caucasian,college
8,1.0,1898.0,1536.0,864.0,1536.0,864.0,1762.3257360658386,1762.3257360658386,335.0,65.0,2.0,844110.0,1.0,40.0,Today,90 days,50 cent,$4.5,0.5104407793209874,0.40963648834019156,27.0,14.22550052687039,0.0,0.0,,,,,0.0,,,,16,0,0,0,0,0,0,,,1961.0,male,caucasian,college
8,1.0,1814.0,1536.0,864.0,1536.0,864.0,1762.3257360658386,1762.3257360658386,338.0,66.0,2.0,849030.0,1.0,40.0,Today,15 days,$3.5,$4.5,0.41383713942307654,0.4571759259259255,26.0,14.332965821389195,0.0,0.0,,,,,0.0,,,,23,0,0,0,0,0,0,,,1961.0,male,caucasian,college
8,1.0,1366.0,1536.0,864.0,1536.0,864.0,1762.3257360658386,1762.3257360658386,341.0,67.0,2.0,853539.0,1.0,38.0,30 days,Today,$5,$1.5,0.5353275767543856,0.38176169590643216,19.0,13.90922401171303,1.0,1.0,1.0,,,,0.0,,,,12,0,0,0,0,0,0,,,1961.0,male,caucasian,college
8,1.0,1282.0,1536.0,864.0,1536.0,864.0,1762.3257360658386,1762.3257360658386,344.0,68.0,2.0,857975.0,1.0,38.0,15 days,Today,$5,$3,0.43424479166666635,0.2881301440329215,18.0,14.0405616224649,1.0,1.0,1.0,,,,0.0,,,,12,0,0,0,0,0,0,,,1961.0,male,caucasian,college
8,1.0,1463.0,1536.0,864.0,1536.0,864.0,1762.3257360658386,1762.3257360658386,347.0,69.0,2.0,862554.0,1.0,40.0,Today,180 days,$2,$4,0.5388849431818177,0.34538089225589175,22.0,15.037593984962406,0.0,0.0,,,,,0.0,,,,14,0,0,0,0,0,0,,,1961.0,male,caucasian,college
8,1.0,1898.0,1536.0,864.0,1536.0,864.0,1762.3257360658386,1762.3257360658386,350.0,70.0,2.0,867602.0,1.0,40.0,Today,30 days,$4,$4.5,0.4241648706896549,0.40864463601532514,29.0,15.279241306638568,0.0,0.0,,,,,0.0,,,,23,0,0,0,0,0,0,,,1961.0,male,caucasian,college
8,1.0,1512.0,1536.0,864.0,1536.0,864.0,1762.3257360658386,1762.3257360658386,353.0,71.0,2.0,872213.0,1.0,38.0,15 days,Today,$5,$1,0.5448626893939391,0.38752104377104324,22.0,14.55026455026455,1.0,1.0,1.0,,,,0.0,,,,12,0,0,0,0,0,0,,,1961.0,male,caucasian,college
8,1.0,1098.0,1536.0,864.0,1536.0,864.0,1762.3257360658386,1762.3257360658386,356.0,72.0,2.0,876430.0,1.0,38.0,7 days,Today,$4.5,$1.5,0.4392496744791663,0.3059895833333328,16.0,14.571948998178506,1.0,1.0,1.0,,,,0.0,,,,10,0,0,0,0,0,0,,,1961.0,male,caucasian,college
8,1.0,1990.0,1536.0,864.0,1536.0,864.0,1762.3257360658386,1762.3257360658386,359.0,73.0,2.0,881557.0,1.0,40.0,Today,30 days,50 cent,$5,0.5644531249999997,0.35346395502645456,28.0,14.07035175879397,0.0,0.0,,,,,0.0,,,,19,0,0,0,0,0,0,,,1961.0,male,caucasian,college
8,1.0,1985.0,1536.0,864.0,1536.0,864.0,1762.3257360658386,1762.3257360658386,362.0,74.0,2.0,886649.0,1.0,40.0,Today,30 days,$3,$5,0.4383400537634404,0.3993055555555551,31.0,15.617128463476071,0.0,0.0,,,,,0.0,,,,19,0,0,0,0,0,0,,,1961.0,male,caucasian,college
8,1.0,1617.0,1536.0,864.0,1536.0,864.0,1762.3257360658386,1762.3257360658386,365.0,75.0,2.0,891401.0,1.0,38.0,30 days,Today,$5,$4.5,0.5113790760869562,0.3725342190016099,23.0,14.22387136672851,1.0,1.0,1.0,,,,0.0,,,,14,0,0,0,0,0,0,,,1961.0,male,caucasian,college
8,1.0,1744.0,1536.0,864.0,1536.0,864.0,1762.3257360658386,1762.3257360658386,368.0,76.0,2.0,896286.0,1.0,40.0,Today,7 days,$4.5,$5,0.46804470486111066,0.3762538580246908,24.0,13.761467889908257,0.0,0.0,,,,,0.0,,,,14,0,0,0,0,0,0,,,1961.0,male,caucasian,college
8,1.0,1335.0,1536.0,864.0,1536.0,864.0,1762.3257360658386,1762.3257360658386,371.0,77.0,2.0,900776.0,1.0,40.0,Tomorrow,Today,$4,$3.5,0.3114510995370367,0.40592849794238633,18.0,13.48314606741573,0.0,1.0,,,,,0.0,,,,9,0,0,0,0,0,0,,,1961.0,male,caucasian,college
8,1.0,1501.0,1536.0,864.0,1536.0,864.0,1762.3257360658386,1762.3257360658386,374.0,78.0,2.0,905400.0,1.0,40.0,Today,90 days,$2,$4,0.423079427083333,0.41603009259259205,20.0,13.324450366422385,0.0,0.0,,,,,0.0,,,,10,0,0,0,0,0,0,,,1961.0,male,caucasian,college
8,1.0,1797.0,1536.0,864.0,1536.0,864.0,1762.3257360658386,1762.3257360658386,377.0,79.0,2.0,910312.0,1.0,40.0,Today,90 days,$1.5,$4.5,0.416866987179487,0.39302884615384576,26.0,14.468558708959376,0.0,0.0,,,,,0.0,,,,14,0,0,0,0,0,0,,,1961.0,male,caucasian,college
8,1.0,1841.0,1536.0,864.0,1536.0,864.0,1762.3257360658386,1762.3257360658386,380.0,80.0,2.0,915261.0,1.0,40.0,Today,180 days,$2,$4.5,0.41635320216049343,0.3674982853223589,27.0,14.665942422596414,0.0,0.0,,,,,0.0,,,,18,0,0,0,0,0,0,,,1961.0,male,caucasian,college
