run_id,condition,rt,stimulus,key_press,trial_type,trial_index,time_elapsed,internal_node_id,subject,chinFirst,choiceTask_amountLeftFirst,webcam_label,webcam_fps,webcam_height,webcam_width,button_pressed,window_width,window_height,responses,chin,success,x_pos,y_pos,task_nr,et_data,trial_duration,option_topLeft,option_bottomLeft,option_topRight,option_bottomRight,recorded_at,ip,user_agent,device,browser,browser_version,platform,platform_version
8,1,null,"""",null,html-keyboard-response,0,102,0.0-0.0,777,1,1,"FaceTime HD-Kamera (integriert)",29.969999313354492,480,640,"""","""","""","""","""","""","""","""","""","""","""","""","""","""","""","2021-01-17 10:25:33",,"Mozilla/5.0 (Macintosh; Intel Mac OS X 10_15_6) AppleWebKit/605.1.15 (KHTML, like Gecko) Version/14.0.2 Safari/605.1.15",Macintosh,Safari,14.0.2,"OS X",10_15_6
8,1,10918,"<div style=""position: fixed; display: inline-block; top: 20%; right: 20%; text-align: right;""><img src=""fu_logo.PNG"" alt=""[FU Berlin Logo]"" style=""width: 25%;""></div><div><br><br><p><strong>Welcome, dear participant! </strong></p><p>Thank you for your interest in and your support for our research.<br> This study is run by researchers at Freie Universität Berlin. </p></div>","""",html-button-response,1,11024,0.0-1.0,777,1,1,"FaceTime HD-Kamera (integriert)",29.969999313354492,480,640,0,1920,895,"""","""","""","""","""","""","""","""","""","""","""","""","2021-01-17 10:25:33",,"Mozilla/5.0 (Macintosh; Intel Mac OS X 10_15_6) AppleWebKit/605.1.15 (KHTML, like Gecko) Version/14.0.2 Safari/605.1.15",Macintosh,Safari,14.0.2,"OS X",10_15_6
8,1,12462,"""","""",survey-html-form,2,23487,0.0-2.0,777,1,1,"FaceTime HD-Kamera (integriert)",29.969999313354492,480,640,"""","""","""","{""prolificID"":""Studie1970""}","""","""","""","""","""","""","""","""","""","""","""","2021-01-17 10:25:33",,"Mozilla/5.0 (Macintosh; Intel Mac OS X 10_15_6) AppleWebKit/605.1.15 (KHTML, like Gecko) Version/14.0.2 Safari/605.1.15",Macintosh,Safari,14.0.2,"OS X",10_15_6
8,1,2352,"<p>Please, use only <strong>one monitor</strong> for this study.<br>If necessary, switch off the other monitors.</p>","""",html-button-response,3,25841,0.0-3.0,777,1,1,"FaceTime HD-Kamera (integriert)",29.969999313354492,480,640,0,"""","""","""","""","""","""","""","""","""","""","""","""","""","""","2021-01-17 10:25:33",,"Mozilla/5.0 (Macintosh; Intel Mac OS X 10_15_6) AppleWebKit/605.1.15 (KHTML, like Gecko) Version/14.0.2 Safari/605.1.15",Macintosh,Safari,14.0.2,"OS X",10_15_6
8,1,1494,"<p><strong>Please turn your mobile phone into Airplane Mode and close all CPU- or data-intensive programs and websites!</strong><br> (e.g. running Youtube Videos or Torrents)</p>","""",html-button-response,4,27336,0.0-4.0,777,1,1,"FaceTime HD-Kamera (integriert)",29.969999313354492,480,640,0,"""","""","""","""","""","""","""","""","""","""","""","""","""","""","2021-01-17 10:25:33",,"Mozilla/5.0 (Macintosh; Intel Mac OS X 10_15_6) AppleWebKit/605.1.15 (KHTML, like Gecko) Version/14.0.2 Safari/605.1.15",Macintosh,Safari,14.0.2,"OS X",10_15_6
8,1,"""","""","""",eyetracking-init,5,44844,0.0-5.0,777,1,1,"FaceTime HD-Kamera (integriert)",29.969999313354492,480,640,"""",1920,895,"""",0,"""","""","""","""","""","""","""","""","""","""","2021-01-17 10:25:33",,"Mozilla/5.0 (Macintosh; Intel Mac OS X 10_15_6) AppleWebKit/605.1.15 (KHTML, like Gecko) Version/14.0.2 Safari/605.1.15",Macintosh,Safari,14.0.2,"OS X",10_15_6
8,1,null,"""",null,html-keyboard-response,6,44949,0.0-6.0,777,1,1,"FaceTime HD-Kamera (integriert)",29.969999313354492,480,640,"""","""","""","""","""","""","""","""","""","""","""","""","""","""","""","2021-01-17 10:25:33",,"Mozilla/5.0 (Macintosh; Intel Mac OS X 10_15_6) AppleWebKit/605.1.15 (KHTML, like Gecko) Version/14.0.2 Safari/605.1.15",Macintosh,Safari,14.0.2,"OS X",10_15_6
8,1,1917,"<div style=""width: 45%; text-align: left; margin: auto;""><p><strong>For a preliminary adjustment, please consider the following instructions: </strong></p><ol><li>Sit at a table and make sure that you could later rest your elbows on it. </li><li>Sit towards a window or lamp so that there are no shadows on your face. You might additionally turn on a desk lamp for that. </li></ol></div><img src=""lightInstruct.PNG"" alt=""[Eye-Tracking-Instructions]"" style=""width: 70%;"">","""",html-button-response,7,46870,0.0-7.0,777,1,1,"FaceTime HD-Kamera (integriert)",29.969999313354492,480,640,0,"""","""","""","""","""","""","""","""","""","""","""","""","""","""","2021-01-17 10:25:33",,"Mozilla/5.0 (Macintosh; Intel Mac OS X 10_15_6) AppleWebKit/605.1.15 (KHTML, like Gecko) Version/14.0.2 Safari/605.1.15",Macintosh,Safari,14.0.2,"OS X",10_15_6
8,1,1824,"<div style=""width: 45%; text-align: left; margin: auto;""><ol start='3'><li>Check the video and stay in the highlighted rectangle so that it becomes green. </li><li>Try as much as possible to follow the instructions on these pictures and avoid moving your head. If you move too much, the calibration can fail and you might not be able to finish the study. </li><li><strong>If necessary, adjust your laptop, monitor, webcam, or chair. </strong></li></ol></div><img src=""ETInstructions.PNG"" alt=""[Eye-Tracking-Instructions]"" style=""width: 70%;"">","""",html-button-response,8,48696,0.0-8.0,777,1,1,"FaceTime HD-Kamera (integriert)",29.969999313354492,480,640,0,"""","""","""","""","""","""","""","""","""","""","""","""","""","""","2021-01-17 10:25:33",,"Mozilla/5.0 (Macintosh; Intel Mac OS X 10_15_6) AppleWebKit/605.1.15 (KHTML, like Gecko) Version/14.0.2 Safari/605.1.15",Macintosh,Safari,14.0.2,"OS X",10_15_6
8,1,null,"""",null,html-keyboard-response,9,48803,0.0-9.0,777,1,1,"FaceTime HD-Kamera (integriert)",29.969999313354492,480,640,"""","""","""","""","""","""","""","""","""","""","""","""","""","""","""","2021-01-17 10:25:33",,"Mozilla/5.0 (Macintosh; Intel Mac OS X 10_15_6) AppleWebKit/605.1.15 (KHTML, like Gecko) Version/14.0.2 Safari/605.1.15",Macintosh,Safari,14.0.2,"OS X",10_15_6
8,1,"""","""","""",fullscreen,10,51470,0.0-10.0,777,1,1,"FaceTime HD-Kamera (integriert)",29.969999313354492,480,640,"""",1920,895,"""","""",true,"""","""","""","""","""","""","""","""","""","2021-01-17 10:25:33",,"Mozilla/5.0 (Macintosh; Intel Mac OS X 10_15_6) AppleWebKit/605.1.15 (KHTML, like Gecko) Version/14.0.2 Safari/605.1.15",Macintosh,Safari,14.0.2,"OS X",10_15_6
8,1,null,"""",null,html-keyboard-response,11,51573,0.0-11.0,777,1,1,"FaceTime HD-Kamera (integriert)",29.969999313354492,480,640,"""","""","""","""","""","""","""","""","""","""","""","""","""","""","""","2021-01-17 10:25:33",,"Mozilla/5.0 (Macintosh; Intel Mac OS X 10_15_6) AppleWebKit/605.1.15 (KHTML, like Gecko) Version/14.0.2 Safari/605.1.15",Macintosh,Safari,14.0.2,"OS X",10_15_6
8,1,70332.00000000001,"<div style=""width: 45%; margin: auto; text-align: justify;""><p>In order to make this measurement as accurate as possible, please rest your head on <u>one</u> of your arms, with your elbow on the desk (see image) You face may be covered a little bit but please keep your eyes visible. Get sure that you stay in the green rectangle in the video stream while doing that. </p><p>The idea is to keep your head at the same position at all time so that you <strong>only move your eyes</strong> when you look at the screen. </p></div><div style=""text-align: center;""><img src=""chinstruction.PNG"" alt=""Oh, this image cannot be displayed"" style=""width: 15%;""></div><p style=""text-align: center;"">Press Space to continue </p></div><br>",32,html-keyboard-response,12,121909,0.0-12.0,777,1,1,"FaceTime HD-Kamera (integriert)",29.969999313354492,480,640,"""","""","""","""","""","""","""","""","""","""","""","""","""","""","""","2021-01-17 10:25:33",,"Mozilla/5.0 (Macintosh; Intel Mac OS X 10_15_6) AppleWebKit/605.1.15 (KHTML, like Gecko) Version/14.0.2 Safari/605.1.15",Macintosh,Safari,14.0.2,"OS X",10_15_6
8,1,57700.999999999985,"<p><strong>Can you stay in that pose for a while?</strong></p><p>If not, then please adjust now in order to be comfortable.</p><br><p>Press Space to continue</p>",32,html-keyboard-response,13,179614,0.0-13.0,777,1,1,"FaceTime HD-Kamera (integriert)",29.969999313354492,480,640,"""","""","""","""","""","""","""","""","""","""","""","""","""","""","""","2021-01-17 10:25:33",,"Mozilla/5.0 (Macintosh; Intel Mac OS X 10_15_6) AppleWebKit/605.1.15 (KHTML, like Gecko) Version/14.0.2 Safari/605.1.15",Macintosh,Safari,14.0.2,"OS X",10_15_6
8,1,55850,"<div style=""position: fixed; top: 30%; left: 27.5%; width: 45%; margin: auto; text-align: justify;""><p>For calibration purposes, there will be buttons (39 in total) appearing one after another. <strong>Click 14x on each button</strong> until it turns green. Then the next button will appear. This will take around <strong>3 minutes. </strong></p><p>For an accurate measurement, please <strong><u>always</u></strong> follow the mouse cursor with your eyes. </p><br><p style=""text-align: center;"">Press Space to continue</p></div>",32,html-keyboard-response,14,235467,0.0-14.0,777,1,1,"FaceTime HD-Kamera (integriert)",29.969999313354492,480,640,"""","""","""","""","""","""","""","""","""","""","""","""","""","""","""","2021-01-17 10:25:33",,"Mozilla/5.0 (Macintosh; Intel Mac OS X 10_15_6) AppleWebKit/605.1.15 (KHTML, like Gecko) Version/14.0.2 Safari/605.1.15",Macintosh,Safari,14.0.2,"OS X",10_15_6
8,1,null,"""",null,html-keyboard-response,15,235572,0.0-15.0-0.0,777,1,1,"FaceTime HD-Kamera (integriert)",29.969999313354492,480,640,"""","""","""","""","""","""","""","""","""","""","""","""","""","""","""","2021-01-17 10:25:33",,"Mozilla/5.0 (Macintosh; Intel Mac OS X 10_15_6) AppleWebKit/605.1.15 (KHTML, like Gecko) Version/14.0.2 Safari/605.1.15",Macintosh,Safari,14.0.2,"OS X",10_15_6
8,1,null,"""",null,html-keyboard-response,16,235676,0.0-15.0-1.0,777,1,1,"FaceTime HD-Kamera (integriert)",29.969999313354492,480,640,"""","""","""","""","""","""","""","""","""","""","""","""","""","""","""","2021-01-17 10:25:33",,"Mozilla/5.0 (Macintosh; Intel Mac OS X 10_15_6) AppleWebKit/605.1.15 (KHTML, like Gecko) Version/14.0.2 Safari/605.1.15",Macintosh,Safari,14.0.2,"OS X",10_15_6
8,1,null,"""",null,html-keyboard-response,17,237178,0.0-15.0-2.0-0.0,777,1,1,"FaceTime HD-Kamera (integriert)",29.969999313354492,480,640,"""","""","""","""","""","""","""","""","""","""","""","""","""","""","""","2021-01-17 10:25:33",,"Mozilla/5.0 (Macintosh; Intel Mac OS X 10_15_6) AppleWebKit/605.1.15 (KHTML, like Gecko) Version/14.0.2 Safari/605.1.15",Macintosh,Safari,14.0.2,"OS X",10_15_6
8,1,"""","""","""",eyetracking-calibration,18,261618,0.0-15.0-2.0-1.0,777,1,1,"FaceTime HD-Kamera (integriert)",29.969999313354492,480,640,"""",1920,1080,"""",1,"""",0.5,0.8,0,"[{""x"":0.26054561348666955,""y"":0.463139605840966,""t"":211788},{""x"":0.2620750004782446,""y"":0.46523469682317165,""t"":211840},{""x"":0.26769437098401805,""y"":0.4730414706651966,""t"":211891},{""x"":0.28087883379273,""y"":0.49140243128151795,""t"":211940.00000000003},{""x"":0.3044475721221298,""y"":0.5246917403665038,""t"":211992},{""x"":0.33848394018570943,""y"":0.5728932314829359,""t"":212039},{""x"":0.3796734617535303,""y"":0.6315197061312652,""t"":212085},{""x"":0.4222770868779608,""y"":0.6922565861019168,""t"":212129},{""x"":0.4615208329972139,""y"":0.748804329083126,""t"":212178.00000000003},{""x"":0.4940962211997268,""y"":0.7958746989788601,""t"":212224},{""x"":0.5196772654493708,""y"":0.8335759951301026,""t"":212271},{""x"":0.5383068513633119,""y"":0.8612655816542356,""t"":212315.00000000003},{""x"":0.5508573721677004,""y"":0.8801080691604203,""t"":212368.00000000003},{""x"":0.558587264316085,""y"":0.8917072845000413,""t"":212418},{""x"":0.5623760095676933,""y"":0.8975504604970903,""t"":212469.00000000003},{""x"":0.5631142693748956,""y"":0.8989256949288665,""t"":212513},{""x"":0.5615562709878095,""y"":0.8969264938588477,""t"":212556},{""x"":0.5583390489543494,""y"":0.8924782541940192,""t"":212600.00000000003},{""x"":0.5539992248923237,""y"":0.8863618827687089,""t"":212645},{""x"":0.5489840669875561,""y"":0.8789897611349176,""t"":212688},{""x"":0.5436585833070564,""y"":0.8711697915827843,""t"":212734},{""x"":0.5383112762658598,""y"":0.8633236037095562,""t"":212777},{""x"":0.5331604082620539,""y"":0.8557699586297165,""t"":212820},{""x"":0.5283615160628707,""y"":0.8487357870285792,""t"":212864},{""x"":0.5240160550979972,""y"":0.8423688750481533,""t"":212908},{""x"":0.520180612289934,""y"":0.8367513749055839,""t"":212952},{""x"":0.5168760319503046,""y"":0.8319131804700748,""t"":212994},{""x"":0.5140959130661543,""y"":0.8278443755423484,""t"":213043},{""x"":0.511814128833182,""y"":0.8245062449706881,""t"":213086},{""x"":0.5099912064534062,""y"":0.8218406128901088,""t"":213129},{""x"":0.5085795481255349,""y"":0.8197774814943269,""t"":213173},{""x"":0.5075275652109308,""y"":0.8182410768351517,""t"":213218},{""x"":0.5067828451176841,""y"":0.817154477522433,""t"":213261.00000000003},{""x"":0.506294487782084,""y"":0.8164430273508312,""t"":213310},{""x"":0.5060147479257736,""y"":0.8160367316663651,""t"":213353},{""x"":0.5059001094086006,""y"":0.8158718227089056,""t"":213398.00000000003},{""x"":0.5059119044813943,""y"":0.8158916592719003,""t"":213442},{""x"":0.5060165764943432,""y"":0.8160471050810539,""t"":213485},{""x"":0.5061856709336158,""y"":0.8162965102027792,""t"":213531},{""x"":0.5063956269757458,""y"":0.8166054011813783,""t"":213573},{""x"":0.5066274301317051,""y"":0.8169459685634077,""t"":213647},{""x"":0.5068661759626399,""y"":0.8172964249406462,""t"":213690.00000000003},{""x"":0.5071005852551433,""y"":0.8176402925812727,""t"":213735},{""x"":0.5073225024431147,""y"":0.8179656671172808,""t"":213782},{""x"":0.5075264014691615,""y"":0.8182644926333962,""t"":213835},{""x"":0.5077089166996445,""y"":0.8185318738703514,""t"":213878},{""x"":0.5078684109322399,""y"":0.8187654430953593,""t"":213921},{""x"":0.50800458792507,""y"":0.8189647924482447,""t"":213965},{""x"":0.5081181531684139,""y"":0.8191309771490625,""t"":214009},{""x"":0.5082105237302604,""y"":0.8192660907292619,""t"":214055},{""x"":0.508283585839533,""y"":0.8193729102825954,""t"":214106.00000000003},{""x"":0.5083394973244117,""y"":0.8194546074752634,""t"":214151},{""x"":0.508380530997129,""y"":0.8195145195596183,""t"":214195},{""x"":0.5084089544753024,""y"":0.8195559737618864,""t"":214241},{""x"":0.5085632575193545,""y"":0.8198244973288868,""t"":214292},{""x"":0.5086887050522515,""y"":0.8200443759019016,""t"":214336},{""x"":0.5091968249935059,""y"":0.8204619659553344,""t"":214389},{""x"":0.5096203027997143,""y"":0.8208033288724689,""t"":214434.00000000003},{""x"":0.5099645077547965,""y"":0.8210748859891615,""t"":214479},{""x"":0.5102365456991748,""y"":0.8212841446380679,""t"":214532},{""x"":0.5105808387557298,""y"":0.8214391163746508,""t"":214581},{""x"":0.5108491568596706,""y"":0.8215478674850878,""t"":214630.00000000003},{""x"":0.5110507503455378,""y"":0.8216181849689245,""t"":214674},{""x"":0.5113314088634258,""y"":0.8216573410117924,""t"":214723},{""x"":0.5115436420533507,""y"":0.8216719395054771,""t"":214768},{""x"":0.5116969471412823,""y"":0.8216678292243371,""t"":214811},{""x"":0.5118006711906093,""y"":0.8216500696534883,""t"":214864},{""x"":0.5118636799490542,""y"":0.8216229370427642,""t"":214909},{""x"":0.5118941324432058,""y"":0.8215899599183737,""t"":214953},{""x"":0.5118993425772973,""y"":0.8215539749349564,""t"":214996},{""x"":0.5118857104502176,""y"":0.8215171955308128,""t"":215042},{""x"":0.5118587078657761,""y"":0.8214812873143452,""t"":215085},{""x"":0.5118229044266855,""y"":0.8214474454321573,""t"":215135},{""x"":0.5117820225562308,""y"":0.8214164703338086,""t"":215178.00000000003},{""x"":0.5117390116957944,""y"":0.8213888393500564,""t"":215223},{""x"":0.5118324495806613,""y"":0.8213647723434259,""t"":215275},{""x"":0.5119072471746149,""y"":0.8213442903805931,""t"":215320},{""x"":0.5118290028009709,""y"":0.8213272669275775,""t"":215363},{""x"":0.5117565462129167,""y"":0.8213134714956927,""t"":215406},{""x"":0.5116912342841633,""y"":0.8213026059842593,""t"":215451},{""x"":0.511633785592583,""y"":0.8212943341911525,""t"":215494},{""x"":0.5115844189995377,""y"":0.821288305109742,""t"":215538},{""x"":0.5115429757647217,""y"":0.8212841707151576,""t"":215589},{""x"":0.5113727088039473,""y"":0.8212815989772413,""t"":215630.00000000003},{""x"":0.5112297564703944,""y"":0.8212802828337435,""t"":215676},{""x"":0.5104310561597835,""y"":0.820795267205141,""t"":215719.00000000003},{""x"":0.5097582572696563,""y"":0.820383655496811,""t"":215760},{""x"":0.5092050732764706,""y"":0.8200425494720688,""t"":215811},{""x"":0.5087621222786809,""y"":0.8197670150698172,""t"":215855},{""x"":0.5084181089743312,""y"":0.8195508107865463,""t"":215895},{""x"":0.5081607731181265,""y"":0.8193869772396926,""t"":215941},{""x"":0.5079776279860416,""y"":0.8192683008785507,""t"":215986},{""x"":0.5078565145402941,""y"":0.8191876664032843,""t"":216026},{""x"":0.5077859975674109,""y"":0.8191383130525557,""t"":216073},{""x"":0.5077556294489722,""y"":0.8191140097623886,""t"":216121},{""x"":0.5077561057549673,""y"":0.8191091634876937,""t"":216165},{""x"":0.5077793348059771,""y"":0.8191188738864204,""t"":216209},{""x"":0.5078184409638431,""y"":0.8191389462373442,""t"":216253},{""x"":0.5078677188654075,""y"":0.8191658730108793,""t"":216296},{""x"":0.5079225532526906,""y"":0.8191967930276555,""t"":216340},{""x"":0.5079793165812159,""y"":0.8192294356894148,""t"":216386.00000000003},{""x"":0.5080352542806458,""y"":0.8192620563995067,""t"":216433},{""x"":0.5080883654469392,""y"":0.8192933680383937,""t"":216477},{""x"":0.5081372848902809,""y"":0.8193224722425223,""t"":216520},{""x"":0.5081811708587637,""y"":0.8193487932616688,""t"":216562},{""x"":0.5082196014022086,""y"":0.8193720163413498,""t"":216609},{""x"":0.5082524812222032,""y"":0.8193920318880771,""t"":216651},{""x"":0.5082799599556808,""y"":0.8194088861168441,""t"":216703},{""x"":0.5083023621382606,""y"":0.8194227384402738,""t"":216747},{""x"":0.5083201285662333,""y"":0.8194338255237632,""t"":216792},{""x"":0.5088790318457244,""y"":0.8196847709967242,""t"":216841},{""x"":0.5093525968217308,""y"":0.8198972099343773,""t"":216888},{""x"":0.5097443898651915,""y"":0.8200728008694497,""t"":216936},{""x"":0.5100602848211478,""y"":0.8202142286590013,""t"":216988},{""x"":0.5103076262821374,""y"":0.8203248294585758,""t"":217036},{""x"":0.510494553564569,""y"":0.8204082880374594,""t"":217084},{""x"":0.5106294701208705,""y"":0.8204684004978463,""t"":217134},{""x"":0.5107206413519456,""y"":0.8205088946841917,""t"":217177},{""x"":0.5107759031541815,""y"":0.8205333003014638,""t"":217221},{""x"":0.5108024637700755,""y"":0.8205448608797971,""t"":217265},{""x"":0.5108067823757618,""y"":0.8205464801223662,""t"":217307},{""x"":0.5107945091333297,""y"":0.8205406957638874,""t"":217352},{""x"":0.5107704729968962,""y"":0.8205296747755624,""t"":217401},{""x"":0.5107387052572947,""y"":0.8205152245195801,""t"":217444},{""x"":0.5107024885384881,""y"":0.8204988152366648,""t"":217485},{""x"":0.5106644226424264,""y"":0.8204816100092591,""t"":217531},{""x"":0.5106265002230225,""y"":0.8204644990562308,""t"":217577.00000000003},{""x"":0.5105901867174977,""y"":0.8204481358662188,""t"":217623},{""x"":0.5105565002528933,""y"":0.8204329732563164,""t"":217668},{""x"":0.5105260883672907,""y"":0.8204192979465081,""t"":217717},{""x"":0.5104992993387052,""y"":0.8204072626680323,""t"":217760},{""x"":0.5104762467059717,""y"":0.8203969151785441,""t"":217802},{""x"":0.5104568662062847,""y"":0.8203882238436881,""t"":217846},{""x"":0.5104409648575351,""y"":0.8203810996698604,""t"":217891},{""x"":0.5104282622960666,""y"":0.8203754148437474,""t"":217933},{""x"":0.5104184247584618,""y"":0.8203710179581285,""t"":217981.00000000003},{""x"":0.5104110922858022,""y"":0.8203677461877856,""t"":218025},{""x"":0.5104058998460673,""y"":0.8203654347311897,""t"":218069},{""x"":0.5104024931293064,""y"":0.8203639238593727,""t"":218112.00000000003},{""x"":0.5104005397838444,""y"":0.8203630639188845,""t"":218160.00000000003},{""x"":0.5103997368413992,""y"":0.820362718626015,""t"":218204},{""x"":0.5103998150342889,""y"":0.8203627669689472,""t"":218250},{""x"":0.5104005406470474,""y"":0.8203631040067906,""t"":218299},{""x"":0.5104017154743732,""y"":0.8203636408225433,""t"":218343},{""x"":0.5104031753827009,""y"":0.8203643038532866,""t"":218387},{""x"":0.5104047878978737,""y"":0.8203650337871528,""t"":218430},{""x"":0.5104064491694207,""y"":0.8203657841841709,""t"":218476},{""x"":0.5104080805949126,""y"":0.8203665199479175,""t"":218521},{""x"":0.5104096253271517,""y"":0.8203672157475959,""t"":218571.00000000003},{""x"":0.5104110448332915,""y"":0.8203678544660549,""t"":218614},{""x"":0.5104123156286683,""y"":0.8203684257284692,""t"":218658},{""x"":0.5104134262690677,""y"":0.8203689245488823,""t"":218699},{""x"":0.5104143746529919,""y"":0.8203693501174065,""t"":218745},{""x"":0.5104151656597125,""y"":0.8203697047393338,""t"":218789},{""x"":0.5104158091288372,""y"":0.8203699929284447,""t"":218830},{""x"":0.5104163181720832,""y"":0.8203702206500927,""t"":218883},{""x"":0.510416707797219,""y"":0.8203703947048628,""t"":218924},{""x"":0.5104169938170118,""y"":0.8203705222404398,""t"":218966},{""x"":0.5104171920118256,""y"":0.8203706103774775,""t"":219010},{""x"":0.5104173175126755,""y"":0.8203706659344582,""t"":219053.00000000003},{""x"":0.5104173843714881,""y"":0.8203706952365408,""t"":219095},{""x"":0.5104174052866036,""y"":0.8203707039939901,""t"":219145},{""x"":0.510417391453769,""y"":0.8203706972367938,""t"":219187},{""x"":0.5104173525156822,""y"":0.8203706792933545,""t"":219236},{""x"":0.510417296586295,""y"":0.8203706538025652,""t"":219281},{""x"":0.5104172303293438,""y"":0.8203706237500499,""t"":219323},{""x"":0.5104171590738038,""y"":0.8203705915208117,""t"":219366},{""x"":0.5104170869520268,""y"":0.8203705589619064,""t"":219410.00000000003},{""x"":0.5104170170491507,""y"":0.8203705274500317,""t"":219453},{""x"":0.5104169515549087,""y"":0.8203704979600702,""t"":219497},{""x"":0.5104168919111947,""y"":0.820370471131617,""t"":219546},{""x"":0.5104168389506449,""y"":0.8203704473313838,""t"":219588.00000000003},{""x"":0.5104167930230976,""y"":0.8203704267100856,""t"":219630.00000000003},{""x"":0.510416754108088,""y"":0.8203704092530008,""t"":219676},{""x"":0.5104167219125778,""y"":0.8203703948238515,""t"":219720},{""x"":0.5104166959539093,""y"":0.8203703832020215,""t"":219763},{""x"":0.5104166756285622,""y"":0.8203703741133717,""t"":219813},{""x"":0.5104166602677072,""y"":0.8203703672551147,""t"":219854},{""x"":0.5104166491808059,""y"":0.8203703623153127,""t"":219899},{""x"":0.5104166416886614,""y"":0.8203703589876357,""t"":219943},{""x"":0.5104166371473691,""y"":0.8203703569820345,""t"":219984},{""x"":0.5104166349645989,""y"":0.8203703560319756,""t"":220026},{""x"":0.5104166346095734,""y"":0.8203703558988495,""t"":220071.00000000003},{""x"":0.5104166356179944,""y"":0.8203703563741195,""t"":220122},{""x"":0.5104166375930449,""y"":0.8203703572797156,""t"":220164},{""x"":0.5104166402034546,""y"":0.8203703584671186,""t"":220208},{""x"":0.5104166431794742,""y"":0.8203703598155113,""t"":220250},{""x"":0.5104166463074646,""y"":0.8203703612293174,""t"":220296},{""x"":0.5104166494236787,""y"":0.8203703626353828,""t"":220340},{""x"":0.5104166524076927,""y"":0.8203703639800064,""t"":220389},{""x"":0.5104166551758408,""y"":0.8203703652259773,""t"":220435},{""x"":0.5104166576749102,""y"":0.8203703663497337,""t"":220479},{""x"":0.5104166598762796,""y"":0.8203703673387243,""t"":220520},{""x"":0.5104166617706175,""y"":0.8203703681890238,""t"":220564},{""x"":0.5104166633632033,""y"":0.8203703689032313,""t"":220606.00000000003},{""x"":0.5104166646698944,""y"":0.8203703694886594,""t"":220656},{""x"":0.5104166657137285,""y"":0.8203703699558105,""t"":220700},{""x"":0.5104166665221315,""y"":0.8203703703171261,""t"":220743.00000000003},{""x"":0.5104166671246825,""y"":0.820370370585986,""t"":220785.00000000003},{""x"":0.5104166675513774,""y"":0.8203703707759328,""t"":220832.00000000003},{""x"":0.5104166678313309,""y"":0.8203703709000917,""t"":220875},{""x"":0.5104166679918537,""y"":0.8203703709707603,""t"":220917},{""x"":0.510416668057842,""y"":0.8203703709991377,""t"":220967},{""x"":0.5104166680514226,""y"":0.8203703709951679,""t"":221009},{""x"":0.510416667991801,""y"":0.8203703709674742,""t"":221054},{""x"":0.5104166678952645,""y"":0.8203703709233636,""t"":221098},{""x"":0.5104166677753008,""y"":0.8203703708688811,""t"":221139},{""x"":0.510416667642796,""y"":0.8203703708089004,""t"":221181},{""x"":0.5104166675062841,""y"":0.820370370747238,""t"":221225.00000000003},{""x"":0.5104166673722241,""y"":0.8203703706867777,""t"":221273.00000000003},{""x"":0.5104166672452878,""y"":0.820370370629601,""t"":221318},{""x"":0.5104166671286413,""y"":0.820370370577115,""t"":221361},{""x"":0.5104166670242147,""y"":0.820370370530172,""t"":221403},{""x"":0.5104166669329486,""y"":0.8203703704891817,""t"":221445},{""x"":0.5104166668550156,""y"":0.8203703704542108,""t"":221487.00000000003},{""x"":0.5104166667900149,""y"":0.8203703704250699,""t"":221535.00000000003},{""x"":0.5104166667371378,""y"":0.8203703704013879,""t"":221578},{""x"":0.510416666695307,""y"":0.8203703703826749,""t"":221621},{""x"":0.5104166666632896,""y"":0.8203703703683719,""t"":221664},{""x"":0.5104166666397856,""y"":0.8203703703578915,""t"":221708},{""x"":0.5104166666234986,""y"":0.8203703703506487,""t"":221751},{""x"":0.5104166666131854,""y"":0.8203703703460833,""t"":221802},{""x"":0.5104166666076909,""y"":0.8203703703436752,""t"":221847},{""x"":0.510416666605972,""y"":0.8203703703429555,""t"":221892.00000000003},{""x"":0.5104166666071084,""y"":0.8203703703435106,""t"":221934.00000000003},{""x"":0.5104166666103079,""y"":0.820370370344985,""t"":221975.00000000003},{""x"":0.5104166666149037,""y"":0.8203703703470795,""t"":222020},{""x"":0.5104166666203481,""y"":0.8203703703495491,""t"":222064},{""x"":0.5104166666262034,""y"":0.8203703703521974,""t"":222112.00000000003},{""x"":0.5104166666321299,""y"":0.8203703703548729,""t"":222155},{""x"":0.5104166666378741,""y"":0.8203703703574624,""t"":222197},{""x"":0.510416666643256,""y"":0.8203703703598857,""t"":222244},{""x"":0.5104166666481571,""y"":0.8203703703620903,""t"":222287},{""x"":0.5104166666525092,""y"":0.8203703703640461,""t"":222338.00000000003},{""x"":0.5104166666562832,""y"":0.8203703703657407,""t"":222381},{""x"":0.510416666659481,""y"":0.8203703703671752,""t"":222426},{""x"":0.5106892983860508,""y"":0.8206127096785156,""t"":222472},{""x"":0.5109210545342685,""y"":0.820818715142657,""t"":222523.00000000003},{""x"":0.5111134480741969,""y"":0.8209897316218555,""t"":222566},{""x"":0.5112691560598376,""y"":0.8211281387196444,""t"":222614},{""x"":0.5113916088572081,""y"":0.8212369856502365,""t"":222669},{""x"":0.5114846570260938,""y"":0.8213196951334164,""t"":222716},{""x"":0.5115523087340096,""y"":0.8213798299847304,""t"":222762},{""x"":0.5115985296493699,""y"":0.821420915242747,""t"":222806},{""x"":0.5116270968922856,""y"":0.8214463083475458,""t"":222849},{""x"":0.5116414986830847,""y"":0.821459109939402,""t"":222901},{""x"":0.5116448717055083,""y"":0.821462108181626,""t"":222943},{""x"":0.5116399687961535,""y"":0.8214577500400705,""t"":222984},{""x"":0.511629150303555,""y"":0.8214481336023118,""t"":223030},{""x"":0.5116143932644033,""y"":0.8214350162342892,""t"":223077.00000000003},{""x"":0.5115973133699977,""y"":0.8214198341060407,""t"":223120},{""x"":0.5115791955047926,""y"":0.821403729337077,""t"":223162},{""x"":0.5115610294031488,""y"":0.8213875816912714,""t"":223213.00000000003},{""x"":0.5115435476715287,""y"":0.8213720423743658,""t"":223257},{""x"":0.5115272640500914,""y"":0.8213575680442788,""t"":223301},{""x"":0.5115125103346012,""y"":0.8213444536305782,""t"":223345},{""x"":0.511499470845943,""y"":0.821332862974051,""t"":223389},{""x"":0.5114882137229637,""y"":0.821322856642561,""t"":223434.00000000003},{""x"":0.5114787186298203,""y"":0.8213144165598047,""t"":223477},{""x"":0.5113345848561611,""y"":0.8213074673049923,""t"":223526},{""x"":0.5112124369393893,""y"":0.8213018941105878,""t"":223569},{""x"":0.5111113617184624,""y"":0.8212975577090054,""t"":223619},{""x"":0.5110298498512458,""y"":0.8212943062645469,""t"":223666.00000000003},{""x"":0.5109660116710159,""y"":0.8212919846805526,""t"":223708},{""x"":0.5109177516211062,""y"":0.8212904415998664,""t"":223752},{""x"":0.5108829051954813,""y"":0.8212895344248853,""t"":223796},{""x"":0.5108593427710264,""y"":0.8212891326765593,""t"":223840},{""x"":0.510845044881657,""y"":0.8212891199939548,""t"":223884},{""x"":0.5108381534253211,""y"":0.8212893950509328,""t"":223935},{""x"":0.5108370030733922,""y"":0.8212898716370295,""t"":223977},{""x"":0.5108401368191559,""y"":0.8212904781180853,""t"":224019},{""x"":0.5108463092003702,""y"":0.8212911564603359,""t"":224065.00000000003},{""x"":0.5108544802942019,""y"":0.8212918609708951,""t"":224108},{""x"":0.5108638031376506,""y"":0.821292556878779,""t"":224151},{""x"":0.5108736067927551,""y"":0.8212932188544414,""t"":224195},{""x"":0.5108833768676377,""y"":0.8212938295425933,""t"":224245},{""x"":0.5108927349312775,""y"":0.8212943781629749,""t"":224288},{""x"":0.5109014179274085,""y"":0.8212948592167528,""t"":224334},{""x"":0.5109092584036706,""y"":0.8212952713221685,""t"":224376},{""x"":0.5109161661262197,""y"":0.8212956161917542,""t"":224429},{""x"":0.5109221114458601,""y"":0.8212958977546013,""t"":224472},{""x"":0.5109271106165333,""y"":0.8212961214205067,""t"":224514},{""x"":0.5109312131370563,""y"":0.821296293478024,""t"":224557},{""x"":0.5109344910882586,""y"":0.8212964206152346,""t"":224601},{""x"":0.5109370303658748,""y"":0.8212965095501097,""t"":224647},{""x"":0.5109389236604905,""y"":0.8212965667564328,""t"":224692},{""x"":0.5109402650055214,""y"":0.8212965982711327,""t"":224743.00000000003},{""x"":0.5109411456989078,""y"":0.8212966095693566,""t"":224791.00000000003},{""x"":0.5110779672625897,""y"":0.8212966054945059,""t"":224838.00000000003},{""x"":0.5111940541483202,""y"":0.8212965902316204,""t"":224885},{""x"":0.5112902322688936,""y"":0.8212965673138226,""t"":224927},{""x"":0.5113679004230111,""y"":0.8212965396529126,""t"":224971},{""x"":0.5114288249169399,""y"":0.82129650958658,""t"":225030},{""x"":0.5114749733735969,""y"":0.8212964789360142,""t"":225074},{""x"":0.5115083840593583,""y"":0.8212964490689061,""t"":225116},{""x"":0.5115310666116689,""y"":0.8212964209639347,""t"":225170},{""x"":0.5115449298835213,""y"":0.8212963952737938,""t"":225216},{""x"":0.5115517326673585,""y"":0.8212963723846421,""t"":225259},{""x"":0.5115530532632235,""y"":0.8212963524705582,""t"":225299},{""x"":0.5115502741652291,""y"":0.8212963355421482,""t"":225345},{""x"":0.5115445785164104,""y"":0.8212963214889101,""t"":225388},{""x"":0.5115369553923688,""y"":0.8212963101153109,""t"":225430},{""x"":0.5115282113935681,""y"":0.821296301170791,""t"":225480},{""x"":0.5115189864357059,""y"":0.8212962943740965,""t"":225523.00000000003},{""x"":0.5115097720135853,""y"":0.8212962894324598,""t"":225563},{""x"":0.5115009305672508,""y"":0.8212962860562163,""t"":225607},{""x"":0.5114927148943553,""y"":0.8212962839694729,""t"":225652},{""x"":0.511485286827281,""y"":0.8212962829174373,""t"":225693.00000000003},{""x"":0.5114787346272132,""y"":0.8212962826709951,""t"":225743},{""x"":0.5114730887415908,""y"":0.8212962830290683,""t"":225786},{""x"":0.5114683357287627,""y"":0.8212962838192478,""t"":225827},{""x"":0.5114644302776598,""y"":0.8212962848971224,""t"":225869.00000000003},{""x"":0.5114613053446895,""y"":0.8212962861446751,""t"":225911},{""x"":0.5114588804988682,""y"":0.8212962874680519,""t"":225953.00000000003},{""x"":0.5114570686133972,""y"":0.8212962887949582,""t"":226001.00000000003},{""x"":0.5114557810712532,""y"":0.8212962900718803,""t"":226044.00000000003},{""x"":0.5114549316674,""y"":0.821296291261292,""t"":226086.99999999997},{""x"":0.511454439394094,""y"":0.8212962923389568,""t"":226130},{""x"":0.5114542302912161,""y"":0.8212962932914104,""t"":226175.99999999997},{""x"":0.511454238533001,""y"":0.8212962941136752,""t"":226228.99999999997},{""x"":0.5114544069079521,""y"":0.8212962948072359,""t"":226275.00000000003},{""x"":0.5114546868317363,""y"":0.8212962953782897,""t"":226318.00000000003},{""x"":0.5114550380147826,""y"":0.8212962958362672,""t"":226360},{""x"":0.5114554278881305,""y"":0.8212962961926124,""t"":226405.00000000003},{""x"":0.5114558308735552,""y"":0.8212962964598018,""t"":226447},{""x"":0.5114562275676557,""y"":0.8212962966505806,""t"":226490.99999999997},{""x"":0.5114566038947604,""y"":0.821296296777386,""t"":226537.00000000003},{""x"":0.5114569502703834,""y"":0.821296296851936,""t"":226581},{""x"":0.5114572608056268,""y"":0.8212962968849524,""t"":226625},{""x"":0.5114575325733443,""y"":0.8212962968859971,""t"":226669.00000000003},{""x"":0.511457764948984,""y"":0.8212962968633968,""t"":226711.99999999997},{""x"":0.5114579590326923,""y"":0.8212962968242354,""t"":226764.99999999997},{""x"":0.5114581171543118,""y"":0.8212962967743996,""t"":226809.00000000003},{""x"":0.5114582424591984,""y"":0.8212962967186584,""t"":226856},{""x"":0.5114583385701187,""y"":0.8212962966607666,""t"":226906},{""x"":0.5114584093187179,""y"":0.8212962966035815,""t"":226949},{""x"":0.5114584585389889,""y"":0.8212962965491846,""t"":226995},{""x"":0.5114584899147053,""y"":0.8212962964990019,""t"":227041},{""x"":0.5114585068727376,""y"":0.8212962964539195,""t"":227089},{""x"":0.511458512514473,""y"":0.8212962964143893,""t"":227134.99999999997},{""x"":0.5114585095780855,""y"":0.8212962963805247,""t"":227178},{""x"":0.5114585004250753,""y"":0.8212962963521852,""t"":227220.00000000003},{""x"":0.5114584870452608,""y"":0.8212962963290477,""t"":227264},{""x"":0.5114584710751938,""y"":0.8212962963106679,""t"":227314},{""x"":0.5114584538257578,""y"":0.8212962962965289,""t"":227360},{""x"":0.5114584363154487,""y"":0.8212962962860815,""t"":227404},{""x"":0.5114584193065346,""y"":0.8212962962787731,""t"":227445},{""x"":0.5114584033419055,""y"":0.821296296274072,""t"":227490.99999999997},{""x"":0.5114583887809747,""y"":0.8212962962714822,""t"":227536},{""x"":0.5114583758334542,""y"":0.8212962962705537,""t"":227577},{""x"":0.5114583645902244,""y"":0.8212962962708884,""t"":227627.99999999997},{""x"":0.5114583550508329,""y"":0.8212962962721426,""t"":227670.99999999997},{""x"":0.5114583471474174,""y"":0.8212962962740257,""t"":227714},{""x"":0.5114583407650378,""y"":0.8212962962762986,""t"":227759},{""x"":0.511458335758553,""y"":0.8212962962787693,""t"":227803},{""x"":0.5114583319662784,""y"":0.8212962962812881,""t"":227852.00000000003},{""x"":0.5114583292207233,""y"":0.8212962962837423,""t"":227896},{""x"":0.5114583273567487,""y"":0.8212962962860517,""t"":227944},{""x"":0.5114583262174971,""y"":0.8212962962881628,""t"":227989.00000000003},{""x"":0.5114583256584414,""y"":0.8212962962900437,""t"":228032.00000000003},{""x"":0.5114583255498865,""y"":0.8212962962916801,""t"":228077},{""x"":0.5114583257782265,""y"":0.8212962962930712,""t"":228121.00000000003},{""x"":0.5114583262462373,""y"":0.821296296294226,""t"":228170},{""x"":0.511458326872642,""y"":0.8212962962951605,""t"":228215.00000000003},{""x"":0.5114583275911583,""y"":0.8212962962958955,""t"":228259},{""x"":0.5114583283492009,""y"":0.8212962962964541,""t"":228303},{""x"":0.511458329106381,""y"":0.8212962962968602,""t"":228348.99999999997},{""x"":0.5114583298329151,""y"":0.8212962962971376,""t"":228394},{""x"":0.5114583305080288,""y"":0.8212962962973093,""t"":228443.00000000003},{""x"":0.5114583311184234,""y"":0.8212962962973956,""t"":228487.00000000003},{""x"":0.5114583316568457,""y"":0.8212962962974159,""t"":228531},{""x"":0.5114583321207934,""y"":0.8212962962973865,""t"":228584},{""x"":0.5114583325113705,""y"":0.8212962962973216,""t"":228627},{""x"":0.5114583328323004,""y"":0.821296296297233,""t"":228670.99999999997},{""x"":0.5114583330890919,""y"":0.8212962962971305,""t"":228713.00000000003},{""x"":0.5114583332883543,""y"":0.8212962962970218,""t"":228757},{""x"":0.5114583334372473,""y"":0.8212962962969127,""t"":228799.00000000003},{""x"":0.5114583335430526,""y"":0.8212962962968078,""t"":228845.00000000003},{""x"":0.5114583336128539,""y"":0.8212962962967101,""t"":228894},{""x"":0.5114583336533082,""y"":0.8212962962966216,""t"":228936.00000000003},{""x"":0.5114583336704928,""y"":0.8212962962965432,""t"":228978.99999999997},{""x"":0.511458333669817,""y"":0.8212962962964757,""t"":229021},{""x"":0.511458333655982,""y"":0.8212962962964188,""t"":229065},{""x"":0.5114583336329805,""y"":0.8212962962963718,""t"":229117},{""x"":0.5114583336041232,""y"":0.8212962962963342,""t"":229158.99999999997},{""x"":0.5114583335720863,""y"":0.821296296296305,""t"":229201},{""x"":0.5114583335389716,""y"":0.821296296296283,""t"":229244.00000000003},{""x"":0.5114583335063739,""y"":0.8212962962962672,""t"":229287.00000000003},{""x"":0.5114583334754497,""y"":0.8212962962962568,""t"":229331},{""x"":0.5114583334469867,""y"":0.8212962962962507,""t"":229375},{""x"":0.5114583334214687,""y"":0.821296296296248,""t"":229429.00000000003},{""x"":0.5114583333991364,""y"":0.8212962962962479,""t"":229478},{""x"":0.511458333380041,""y"":0.8212962962962498,""t"":229521},{""x"":0.5114583333640922,""y"":0.8212962962962529,""t"":229567},{""x"":0.5114583333510986,""y"":0.8212962962962569,""t"":229615.99999999997},{""x"":0.5114583333408016,""y"":0.8212962962962614,""t"":229661},{""x"":0.5114583333329037,""y"":0.8212962962962662,""t"":229716.99999999997},{""x"":0.5114583333270899,""y"":0.8212962962962709,""t"":229764},{""x"":0.5114583333230451,""y"":0.8212962962962753,""t"":229810},{""x"":0.5114583333204668,""y"":0.8212962962962795,""t"":229853},{""x"":0.5114583333190731,""y"":0.8212962962962833,""t"":229898.00000000003},{""x"":0.5114583333186095,""y"":0.8212962962962866,""t"":229951},{""x"":0.5114583333188506,""y"":0.8212962962962893,""t"":229992},{""x"":0.5114583333196028,""y"":0.8212962962962916,""t"":230035.00000000003},{""x"":0.5114583333207022,""y"":0.8212962962962935,""t"":230077},{""x"":0.5114583333220145,""y"":0.8212962962962952,""t"":230119.00000000003},{""x"":0.5114583333234319,""y"":0.8212962962962963,""t"":230163.99999999997},{""x"":0.5114583333248708,""y"":0.8212962962962972,""t"":230209},{""x"":0.5114583333262686,""y"":0.8212962962962977,""t"":230258.00000000003},{""x"":0.5114583333275804,""y"":0.8212962962962982,""t"":230302},{""x"":0.511458333328777,""y"":0.8212962962962984,""t"":230344},{""x"":0.5114583333298409,""y"":0.8212962962962985,""t"":230389},{""x"":0.5114583333307648,""y"":0.8212962962962985,""t"":230437},{""x"":0.5114583333315488,""y"":0.8212962962962984,""t"":230483},{""x"":0.5115946491941602,""y"":0.8212962962962982,""t"":230541},{""x"":0.5117105272677269,""y"":0.821296296296298,""t"":230585.00000000003},{""x"":0.5118067240372675,""y"":0.8212962962962977,""t"":230632},{""x"":0.5118845780297682,""y"":0.8212962962962975,""t"":230675},{""x"":0.5119458044282236,""y"":0.8212962962962973,""t"":230722.00000000003},{""x"":0.5119923285125118,""y"":0.8212962962962972,""t"":230774},{""x"":0.5120261543663767,""y"":0.821296296296297,""t"":230816.00000000003},{""x"":0.512049264824013,""y"":0.8212962962962967,""t"":230859.00000000003},{""x"":0.5120635484454652,""y"":0.8212962962962966,""t"":230903},{""x"":0.5120707493408875,""y"":0.8212962962962965,""t"":230947},{""x"":0.512072435852142,""y"":0.8212962962962964,""t"":230990.99999999997},{""x"":0.5120699843975204,""y"":0.8212962962962964,""t"":231033.99999999997},{""x"":0.5120645751512843,""y"":0.8212962962962963,""t"":231083.00000000003},{""x"":0.5120571966317747,""y"":0.8212962962962962,""t"":231127},{""x"":0.5120486566846377,""y"":0.8212962962962962,""t"":231170.99999999997},{""x"":0.5120395977520981,""y"":0.8212962962962962,""t"":231213.00000000003},{""x"":0.5120305147013344,""y"":0.8212962962962962,""t"":231264.99999999997},{""x"":0.5120217738355769,""y"":0.8212962962962962,""t"":231308},{""x"":0.5120136320249045,""y"":0.8212962962962962,""t"":231362.00000000003},{""x"":0.5120062551671991,""y"":0.8212962962962962,""t"":231404},{""x"":0.5119997354229033,""y"":0.8212962962962962,""t"":231448.00000000003},{""x"":0.5119941068614409,""y"":0.8212962962962962,""t"":231492},{""x"":0.511989359314891,""y"":0.8212962962962962,""t"":231533.99999999997},{""x"":0.5119854503590593,""y"":0.8212962962962962,""t"":231585.00000000003},{""x"":0.5119823154372071,""y"":0.8212962962962962,""t"":231627.99999999997},{""x"":0.5119798762113169,""y"":0.8212962962962962,""t"":231673},{""x"":0.5119780472738091,""y"":0.8212962962962962,""t"":231716.99999999997},{""x"":0.5119767413828122,""y"":0.8212962962962962,""t"":231764.99999999997},{""x"":0.5119758733999262,""y"":0.821538635606451,""t"":231812},{""x"":0.5119753631139993,""y"":0.8217446410696373,""t"":231858},{""x"":0.5119751371305656,""y"":0.8219156575480889,""t"":231909},{""x"":0.5119751299966006,""y"":0.8220540646453142,""t"":231955.00000000006},{""x"":0.5119752847161505,""y"":0.8221629115755005,""t"":231999},{""x"":0.5119755527958297,""y"":0.822245621058407,""t"":232045},{""x"":0.5119758939414235,""y"":0.8223057559095561,""t"":232090},{""x"":0.5119762755089394,""y"":0.8223468411674947,""t"":232131},{""x"":0.5119766717961289,""y"":0.8223722342722827,""t"":232183},{""x"":0.5119770632443135,""y"":0.8223850358641778,""t"":232225},{""x"":0.5119774356056235,""y"":0.8223880341064763,""t"":232269},{""x"":0.5119777791177089,""y"":0.8223836759650184,""t"":232313},{""x"":0.5119780877166734,""y"":0.8223740595273705,""t"":232367},{""x"":0.5119783583094235,""y"":0.8223609421594641,""t"":232414},{""x"":0.5119785901187198,""y"":0.8223457600313311,""t"":232466},{""x"":0.5119787841078617,""y"":0.8223296552624778,""t"":232514},{""x"":0.5119789424869631,""y"":0.8223135076167745,""t"":232558},{""x"":0.5119790682990348,""y"":0.8222979682999613,""t"":232600},{""x"":0.5119791650813884,""y"":0.8222834939699555,""t"":232644},{""x"":0.5119792365960694,""y"":0.8222703795563248,""t"":232688},{""x"":0.5119792866219366,""y"":0.8220164495897014,""t"":232731},{""x"":0.5119793188004934,""y"":0.8218004377950734,""t"":232781},{""x"":0.511979336527512,""y"":0.8216209812339038,""t"":232825},{""x"":0.511979342882763,""y"":0.8214756248818957,""t"":232871.00000000006},{""x"":0.5119793405906595,""y"":0.821603544067482,""t"":232919.00000000006},{""x"":0.5119793320052864,""y"":0.8217225036461948,""t"":232964},{""x"":0.5119793191140253,""y"":0.8218301338290492,""t"":233009},{""x"":0.5119793035547633,""y"":0.8219251340843473,""t"":233060},{""x"":0.5119792866424512,""y"":0.8220070448290617,""t"":233104},{""x"":0.511979269401508,""y"":0.8220760455450917,""t"":233147},{""x"":0.5119792526012596,""y"":0.822132780405614,""t"":233193.00000000006},{""x"":0.5119792367922132,""y"":0.8221782111224027,""t"":233235},{""x"":0.511979222341509,""y"":0.8222134957218121,""t"":233280},{""x"":0.5119792094663612,""y"":0.8222398912677052,""t"":233332},{""x"":0.511979198264689,""y"":0.8222586781191876,""t"":233376},{""x"":0.5119791887424584,""y"":0.8222711030888286,""t"":233424},{""x"":0.5119791808375119,""y"":0.8222783388074385,""t"":233474},{""x"":0.5119791744398624,""y"":0.8222814566642247,""t"":233517},{""x"":0.5119791694085699,""y"":0.822281410841756,""t"":233564},{""x"":0.5119791655854293,""y"":0.822279031174682,""t"":233613},{""x"":0.5119791628057586,""y"":0.822275022805826,""t"":233656},{""x"":0.5119791609066217,""y"":0.8222699708742301,""t"":233700},{""x"":0.5119791597328285,""y"":0.8222643487323561,""t"":233744},{""x"":0.5119791591410585,""y"":0.8222585284430922,""t"":233786},{""x"":0.5119791590024347,""y"":0.8222527925438518,""t"":233830.00000000006},{""x"":0.511979159203851,""y"":0.8222473462798813,""t"":233874},{""x"":0.5119791596483269,""y"":0.8222423296991286,""t"":233928},{""x"":0.5119791602546313,""y"":0.8222378291655443,""t"":233973},{""x"":0.5119791609563797,""y"":0.8222338879867208,""t"":234018},{""x"":0.5119791617007793,""y"":0.8222305159664584,""t"":234062},{""x"":0.511979162447164,""y"":0.8222276977850382,""t"":234105},{""x"":0.5119791631654327,""y"":0.822225400181882,""t"":234149},{""x"":0.5119791638344767,""y"":0.8222235779693742,""t"":234200}]","""","""","""","""","""","2021-01-17 10:25:33",,"Mozilla/5.0 (Macintosh; Intel Mac OS X 10_15_6) AppleWebKit/605.1.15 (KHTML, like Gecko) Version/14.0.2 Safari/605.1.15",Macintosh,Safari,14.0.2,"OS X",10_15_6
8,1,null,"""",null,html-keyboard-response,19,263125,0.0-15.0-2.0-0.1,777,1,1,"FaceTime HD-Kamera (integriert)",29.969999313354492,480,640,"""","""","""","""","""","""","""","""","""","""","""","""","""","""","""","2021-01-17 10:25:33",,"Mozilla/5.0 (Macintosh; Intel Mac OS X 10_15_6) AppleWebKit/605.1.15 (KHTML, like Gecko) Version/14.0.2 Safari/605.1.15",Macintosh,Safari,14.0.2,"OS X",10_15_6
8,1,"""","""","""",eyetracking-calibration,20,269602,0.0-15.0-2.0-1.1,777,1,1,"FaceTime HD-Kamera (integriert)",29.969999313354492,480,640,"""",1920,1080,"""",1,"""",0.35,0.65,0,"[{""x"":0.5119791644406633,""y"":0.8222221789454157,""t"":235750},{""x"":0.5119791649764184,""y"":0.822221147798239,""t"":235814},{""x"":0.5119791654389423,""y"":0.8222204291124754,""t"":235860},{""x"":0.5119791658290702,""y"":0.8222199695925619,""t"":235912},{""x"":0.5119791661502879,""y"":0.8222197196202086,""t"":235959},{""x"":0.5119791664079003,""y"":0.822219634258493,""t"":236003},{""x"":0.5119791666083444,""y"":0.8222196738076188,""t"":236048},{""x"":0.5119791667586385,""y"":0.822219804007654,""t"":236097.00000000006},{""x"":0.5119791668659516,""y"":0.8222199959726064,""t"":236139},{""x"":0.5119791669372796,""y"":0.8222202259287675,""t"":236182},{""x"":0.511979166979214,""y"":0.8222204748189222,""t"":236231},{""x"":0.5119791669977858,""y"":0.8222207278232168,""t"":236277},{""x"":0.5119791669983734,""y"":0.8222209738374888,""t"":236319},{""x"":0.5119791669856607,""y"":0.822221204940866,""t"":236361},{""x"":0.5119791669636324,""y"":0.8222214158765454,""t"":236406},{""x"":0.5119791669355999,""y"":0.8222216035628797,""t"":236451},{""x"":0.5119791669042454,""y"":0.8222217666462176,""t"":236493},{""x"":0.5119791668716812,""y"":0.8222219051022909,""t"":236545},{""x"":0.5119791668395146,""y"":0.8222220198892415,""t"":236586},{""x"":0.5119791668089163,""y"":0.8222221126525247,""t"":236633.00000000006},{""x"":0.5119791667806886,""y"":0.8222221854798063,""t"":236679},{""x"":0.5119791667553297,""y"":0.8222222407024831,""t"":236721},{""x"":0.511979166733094,""y"":0.8222222807394916,""t"":236770.00000000006},{""x"":0.5107523239563867,""y"":0.8207682721175975,""t"":236829},{""x"":0.5080736309395207,""y"":0.8175935415682992,""t"":236880},{""x"":0.5044541645082165,""y"":0.813465371407387,""t"":236935},{""x"":0.5014403366082034,""y"":0.810030765938288,""t"":236979},{""x"":0.497902556522925,""y"":0.8057902896609502,""t"":237032.00000000006},{""x"":0.49504355847484655,""y"":0.8023567752758027,""t"":237092},{""x"":0.4904816289884888,""y"":0.797958725682174,""t"":237140},{""x"":0.48449235494833814,""y"":0.7925236727667212,""t"":237192},{""x"":0.47774471275487335,""y"":0.7864871962173953,""t"":237244},{""x"":0.47055194181857013,""y"":0.7802314068267286,""t"":237295},{""x"":0.4648193730727481,""y"":0.775295492973183,""t"":237341},{""x"":0.4588925588428266,""y"":0.770075598775119,""t"":237402},{""x"":0.4520122765549423,""y"":0.7639057281192785,""t"":237454},{""x"":0.44503142187383415,""y"":0.75767578784216,""t"":237505},{""x"":0.43964107374778244,""y"":0.7528822636742927,""t"":237549},{""x"":0.43563859156783286,""y"":0.749339190477665,""t"":237599},{""x"":0.43145620687086955,""y"":0.7458903584297334,""t"":237649},{""x"":0.4284635018422294,""y"":0.7434703579764338,""t"":237708},{""x"":0.42524087371892905,""y"":0.7409364719223686,""t"":237757},{""x"":0.4230172845767902,""y"":0.7392415007033533,""t"":237801},{""x"":0.42039254479921373,""y"":0.7372636980968351,""t"":237851},{""x"":0.41861673497893864,""y"":0.7359780427242748,""t"":237896},{""x"":0.4169927853605098,""y"":0.7347696574286954,""t"":237945},{""x"":0.4157353749643817,""y"":0.7335928159136815,""t"":237992},{""x"":0.4150297531291226,""y"":0.7328971881019378,""t"":238045},{""x"":0.4147594682798206,""y"":0.7325843976301748,""t"":238087},{""x"":0.414821293478353,""y"":0.7323243034324503,""t"":238135},{""x"":0.4151258564054801,""y"":0.7323190637323059,""t"":238178},{""x"":0.4157338712182987,""y"":0.7325021840319214,""t"":238226},{""x"":0.417380356416616,""y"":0.733544125813525,""t"":238273},{""x"":0.41796433543168876,""y"":0.7335925344320354,""t"":238329},{""x"":0.41936835922102067,""y"":0.7346974498628323,""t"":238374},{""x"":0.42062811308744574,""y"":0.7354736582067186,""t"":238427},{""x"":0.4217314281422097,""y"":0.7361820689955584,""t"":238477},{""x"":0.4217213095620059,""y"":0.7358429927781508,""t"":238529},{""x"":0.42169928821451574,""y"":0.7355665907220552,""t"":238573},{""x"":0.4216693521464711,""y"":0.7353474140539485,""t"":238637},{""x"":0.42163475931339606,""y"":0.7351791720603291,""t"":238682},{""x"":0.4217344154023754,""y"":0.7350552017669776,""t"":238735},{""x"":0.4218135606814549,""y"":0.7349688294447806,""t"":238790},{""x"":0.4228286376210297,""y"":0.735640655856632,""t"":238836},{""x"":0.42273053151287876,""y"":0.7352593308688019,""t"":238885},{""x"":0.42221524728547977,""y"":0.7344534940063782,""t"":238934},{""x"":0.4225773096786308,""y"":0.7347468301411608,""t"":238980},{""x"":0.4228787029061419,""y"":0.7350174633426912,""t"":239027},{""x"":0.42312336049949667,""y"":0.7352606094949471,""t"":239072},{""x"":0.42440696199439104,""y"":0.7364431832534407,""t"":239124},{""x"":0.42548132664344857,""y"":0.7374498749024979,""t"":239168},{""x"":0.42744916359387325,""y"":0.7392561762184896,""t"":239215},{""x"":0.4290732473872922,""y"":0.7407586511869848,""t"":239258.00000000006},{""x"":0.43174233821393254,""y"":0.7431889677804294,""t"":239304},{""x"":0.43323883059990587,""y"":0.7446950760593843,""t"":239365},{""x"":0.4357518400481958,""y"":0.7470821540758966,""t"":239411},{""x"":0.4393947733301778,""y"":0.750450847670167,""t"":239456},{""x"":0.4442478577463195,""y"":0.7551155931515046,""t"":239502},{""x"":0.448182591611155,""y"":0.7589071655879774,""t"":239547},{""x"":0.4493749631870203,""y"":0.7599651106327171,""t"":239596},{""x"":0.45202331533128787,""y"":0.7625468103956123,""t"":239642},{""x"":0.45402218700499586,""y"":0.7645060019688094,""t"":239693.00000000006},{""x"":0.45655286953737223,""y"":0.7671396596286404,""t"":239744},{""x"":0.45640574850632315,""y"":0.7669576142779873,""t"":239792},{""x"":0.4560226099677952,""y"":0.7665548016130987,""t"":239840},{""x"":0.4575251489035541,""y"":0.7681860208483235,""t"":239883.00000000006},{""x"":0.4586251799895431,""y"":0.7694034848202631,""t"":239926},{""x"":0.4582939254718815,""y"":0.7690555356182978,""t"":239983},{""x"":0.4578445076916824,""y"":0.7685938829083123,""t"":240031},{""x"":0.4573256649895312,""y"":0.7680665827052253,""t"":240077},{""x"":0.45677613112843635,""y"":0.767511715317261,""t"":240122},{""x"":0.4552715075776724,""y"":0.7659891297651736,""t"":240169.00000000006},{""x"":0.45393111449968815,""y"":0.7646350159256431,""t"":240216},{""x"":0.4527650925735879,""y"":0.7634589482315415,""t"":240278},{""x"":0.45081980646469655,""y"":0.7614915814447456,""t"":240325},{""x"":0.449186023039694,""y"":0.7598405600311737,""t"":240372},{""x"":0.4478469659579302,""y"":0.7584885233878325,""t"":240419.00000000006},{""x"":0.44677856872706934,""y"":0.7574108049016395,""t"":240464},{""x"":0.44595233656203676,""y"":0.7565783217436698,""t"":240520.00000000006},{""x"":0.4462918457611512,""y"":0.756929240597422,""t"":240568.00000000006},{""x"":0.4466688203183324,""y"":0.7573173583805691,""t"":240613},{""x"":0.44705851383007167,""y"":0.757717556778736,""t"":240658},{""x"":0.44744215258777464,""y"":0.7581108128108465,""t"":240704},{""x"":0.4468519053949108,""y"":0.7575140002211592,""t"":240752},{""x"":0.44828419425021504,""y"":0.758971181679218,""t"":240796},{""x"":0.44953347210197053,""y"":0.7602418849361021,""t"":240850},{""x"":0.45059812482566525,""y"":0.7613245541661319,""t"":240896},{""x"":0.4505300670166274,""y"":0.761256135903986,""t"":240946},{""x"":0.4504381711367926,""y"":0.7611631792498078,""t"":240989},{""x"":0.45033231837261745,""y"":0.7610557907245868,""t"":241035},{""x"":0.45022035689939055,""y"":0.760942003687404,""t"":241081},{""x"":0.44915411189158383,""y"":0.7598586453079736,""t"":241137},{""x"":0.44823531815164536,""y"":0.7589249824868739,""t"":241180},{""x"":0.4474617985670915,""y"":0.7581388400314961,""t"":241229},{""x"":0.4468261881459552,""y"":0.7574927653426426,""t"":241272},{""x"":0.4454996885489127,""y"":0.7562486870917335,""t"":241322},{""x"":0.4444097385002747,""y"":0.7552293510595687,""t"":241367},{""x"":0.44353762499180627,""y"":0.7544163358652378,""t"":241419.00000000006},{""x"":0.44286089913377874,""y"":0.7537878643245002,""t"":241465},{""x"":0.44153734848475273,""y"":0.7525935269224912,""t"":241513},{""x"":0.4404827620773828,""y"":0.7516456867618442,""t"":241560},{""x"":0.439668541544524,""y"":0.7509173949827068,""t"":241606},{""x"":0.4390640469866642,""y"":0.7503800545381394,""t"":241651},{""x"":0.43863834565385507,""y"":0.750004984962286,""t"":241704},{""x"":0.43836151455793654,""y"":0.7497645809034836,""t"":241748},{""x"":0.4382055621365363,""y"":0.7496331248283341,""t"":241793},{""x"":0.43814503214453027,""y"":0.7495873121992399,""t"":241839},{""x"":0.4374757696984513,""y"":0.7488795256337486,""t"":241886},{""x"":0.43696198894601923,""y"":0.748327998667684,""t"":241931.00000000006},{""x"":0.4353565162598488,""y"":0.7464596569771192,""t"":241990},{""x"":0.43404976828775504,""y"":0.7449270453911494,""t"":242036},{""x"":0.4317885087851875,""y"":0.7427336796024354,""t"":242087},{""x"":0.4299532416244078,""y"":0.7409619941013502,""t"":242130},{""x"":0.4285052109484334,""y"":0.7395718416615287,""t"":242176}]","""","""","""","""","""","2021-01-17 10:25:33",,"Mozilla/5.0 (Macintosh; Intel Mac OS X 10_15_6) AppleWebKit/605.1.15 (KHTML, like Gecko) Version/14.0.2 Safari/605.1.15",Macintosh,Safari,14.0.2,"OS X",10_15_6
8,1,null,"""",null,html-keyboard-response,21,271106,0.0-15.0-2.0-0.2,777,1,1,"FaceTime HD-Kamera (integriert)",29.969999313354492,480,640,"""","""","""","""","""","""","""","""","""","""","""","""","""","""","""","2021-01-17 10:25:33",,"Mozilla/5.0 (Macintosh; Intel Mac OS X 10_15_6) AppleWebKit/605.1.15 (KHTML, like Gecko) Version/14.0.2 Safari/605.1.15",Macintosh,Safari,14.0.2,"OS X",10_15_6
8,1,"""","""","""",eyetracking-calibration,22,276466,0.0-15.0-2.0-1.2,777,1,1,"FaceTime HD-Kamera (integriert)",29.969999313354492,480,640,"""",1920,1080,"""",1,"""",0.65,0.65,0,"[{""x"":0.42917256309711005,""y"":0.7402148364224167,""t"":243731},{""x"":0.4298714410338734,""y"":0.7408938730274506,""t"":243789},{""x"":0.43056589481959,""y"":0.7415726059426825,""t"":243835},{""x"":0.4312295589087517,""y"":0.7422242142581339,""t"":243879},{""x"":0.4318441886124557,""y"":0.7428299718416508,""t"":243925},{""x"":0.43239825775177293,""y"":0.7433778708989411,""t"":243973},{""x"":0.4328856570659203,""y"":0.7438613395147777,""t"":244017},{""x"":0.4333045185913583,""y"":0.7442780794060221,""t"":244069},{""x"":0.43365617963557157,""y"":0.7446290384874862,""t"":244114},{""x"":0.4339442908709998,""y"":0.7449175236871031,""t"":244158},{""x"":0.4341740661782032,""y"":0.7451484524654721,""t"":244202},{""x"":0.43435166686989324,""y"":0.745327736401892,""t"":244247},{""x"":0.43448370953000615,""y"":0.7454617867120772,""t"":244292},{""x"":0.43335004186277293,""y"":0.744345432831979,""t"":244350},{""x"":0.4315500313936141,""y"":0.7421666960694803,""t"":244402},{""x"":0.4298871433258258,""y"":0.7395911718924105,""t"":244453},{""x"":0.42850706830607316,""y"":0.736472354785794,""t"":244520.00000000006},{""x"":0.4280720628506823,""y"":0.7331715972335201,""t"":244572},{""x"":0.4277736502219661,""y"":0.7304842631838464,""t"":244623},{""x"":0.42881475028462124,""y"":0.7276292933389948,""t"":244677},{""x"":0.42976245306568117,""y"":0.7253806397245836,""t"":244726},{""x"":0.4325120646275413,""y"":0.7229417168711202,""t"":244781},{""x"":0.4370446259177699,""y"":0.7205912326590979,""t"":244837},{""x"":0.44277149706222885,""y"":0.7180834634689495,""t"":244900},{""x"":0.44944211351412056,""y"":0.7156912129317952,""t"":244953},{""x"":0.457924613295984,""y"":0.7138903431384562,""t"":245008.00000000006},{""x"":0.46486377160916814,""y"":0.7125974484322142,""t"":245058},{""x"":0.4733874492882903,""y"":0.7117308199178496,""t"":245110},{""x"":0.48019829668495595,""y"":0.7112132397636209,""t"":245162},{""x"":0.48820098799531564,""y"":0.7109738661650356,""t"":245216},{""x"":0.49445294259476974,""y"":0.7109493722610312,""t"":245261},{""x"":0.5016182748105497,""y"":0.7110844891240052,""t"":245310},{""x"":0.5070918203650377,""y"":0.7113320872728703,""t"":245357},{""x"":0.5131441680950175,""y"":0.7116529142592398,""t"":245406},{""x"":0.5176488527905153,""y"":0.7120150887418174,""t"":245453},{""x"":0.5224681938444597,""y"":0.7123934348339486,""t"":245510},{""x"":0.525940748688644,""y"":0.7127687249110436,""t"":245556.00000000006},{""x"":0.5282813782571925,""y"":0.7131268848463529,""t"":245601},{""x"":0.5296935705749318,""y"":0.7134582030076779,""t"":245643},{""x"":0.5303643524561689,""y"":0.7137565733807181,""t"":245688},{""x"":0.5304611853578363,""y"":0.7140187938846926,""t"":245733},{""x"":0.5291762380750232,""y"":0.7147286118653029,""t"":245788},{""x"":0.5265049577178974,""y"":0.7158141417395701,""t"":245831},{""x"":0.5225939591213833,""y"":0.7174497609087724,""t"":245877},{""x"":0.517579975887077,""y"":0.7195367639134107,""t"":245923},{""x"":0.5132228177094772,""y"":0.7212573713835826,""t"":245965},{""x"":0.5074785265197721,""y"":0.7233663033822021,""t"":246010},{""x"":0.5026729198093144,""y"":0.725061415710862,""t"":246062},{""x"":0.49656972705421837,""y"":0.7271108510387435,""t"":246108},{""x"":0.491601226914655,""y"":0.7287237223137759,""t"":246151},{""x"":0.484941040900792,""y"":0.7309197238025192,""t"":246195},{""x"":0.47960936364898815,""y"":0.7326366328047033,""t"":246240},{""x"":0.4723345361611051,""y"":0.7346588117393178,""t"":246284},{""x"":0.4665739488181805,""y"":0.7362092922991108,""t"":246335},{""x"":0.45875169918406516,""y"":0.7385617763893623,""t"":246380},{""x"":0.45438134479095277,""y"":0.7399002339843279,""t"":246431.00000000006},{""x"":0.4475483603725795,""y"":0.7418176561619956,""t"":246477},{""x"":0.44229128040517623,""y"":0.7432639514823652,""t"":246522},{""x"":0.4384060041860217,""y"":0.7443051049186848,""t"":246566},{""x"":0.43568748052017725,""y"":0.7450058885220345,""t"":246615},{""x"":0.43393808333541817,""y"":0.745427611748031,""t"":246660},{""x"":0.43488192296286,""y"":0.7451419191961621,""t"":246708},{""x"":0.43615727104950264,""y"":0.7447565669220334,""t"":246757},{""x"":0.43762681686761096,""y"":0.7443129112757916,""t"":246804},{""x"":0.4409535970570509,""y"":0.7433591166886815,""t"":246855},{""x"":0.4440159170753084,""y"":0.7424777857063876,""t"":246910},{""x"":0.44676162344012993,""y"":0.7416848827006756,""t"":246956},{""x"":0.45080055138799374,""y"":0.7402616711260134,""t"":247007},{""x"":0.45424607225391106,""y"":0.7390464514745494,""t"":247053},{""x"":0.45711693916814894,""y"":0.738032949865971,""t"":247101},{""x"":0.45944977247636576,""y"":0.7372085397181054,""t"":247146},{""x"":0.4629287223767716,""y"":0.7360717262292785,""t"":247207},{""x"":0.46572785522400645,""y"":0.7351606129421027,""t"":247252},{""x"":0.4679141583839318,""y"":0.7344522385267194,""t"":247300},{""x"":0.4695613752909152,""y"":0.7339216160396518,""t"":247343},{""x"":0.4722447889953307,""y"":0.7333009140841837,""t"":247393},{""x"":0.4743144380001637,""y"":0.7328439511314289,""t"":247440},{""x"":0.4758489338409206,""y"":0.7325259832811771,""t"":247495},{""x"":0.4769275231955706,""y"":0.7323232339383812,""t"":247540},{""x"":0.4789899394669103,""y"":0.7317289043673123,""t"":247586},{""x"":0.4805402134322696,""y"":0.7312803203940254,""t"":247634},{""x"":0.4816509438808917,""y"":0.7309571153821792,""t"":247679},{""x"":0.4837563077374847,""y"":0.7302546053865004,""t"":247727},{""x"":0.4853558052821947,""y"":0.7297111910190159,""t"":247780},{""x"":0.4865184418199837,""y"":0.7293067700242967,""t"":247827},{""x"":0.48853931912262727,""y"":0.7285363140590874,""t"":247877},{""x"":0.4900726570527136,""y"":0.7279374435416949,""t"":247921},{""x"":0.4911852863911171,""y"":0.7274889852081201,""t"":247968},{""x"":0.4919432205855815,""y"":0.7271693460734915,""t"":248013},{""x"":0.49363609609837744,""y"":0.726715139774208,""t"":248069},{""x"":0.4949110580061968,""y"":0.7263852296238786,""t"":248114},{""x"":0.49582695446695907,""y"":0.7261601594446654,""t"":248161},{""x"":0.49644146245068765,""y"":0.7260214101060392,""t"":248208},{""x"":0.49789963524009306,""y"":0.7254672096277935,""t"":248257},{""x"":0.49899748296493307,""y"":0.7250395410384817,""t"":248316},{""x"":0.49978580094989683,""y"":0.7247222374929525,""t"":248362},{""x"":0.5014048846057316,""y"":0.7242566500012209,""t"":248410},{""x"":0.5026477426858729,""y"":0.7239056829951881,""t"":248458},{""x"":0.5035635848672592,""y"":0.723653247225758,""t"":248504},{""x"":0.5052922289522184,""y"":0.7232412200023381,""t"":248558},{""x"":0.5066270430510661,""y"":0.7229333424630706,""t"":248613},{""x"":0.5076181998644788,""y"":0.7227145580688724,""t"":248659},{""x"":0.5083163608263318,""y"":0.7225702199240622,""t"":248705.00000000006},{""x"":0.509724751345579,""y"":0.722001885445664,""t"":248755},{""x"":0.5107919516622804,""y"":0.7215543343419651,""t"":248802},{""x"":0.5115649636580157,""y"":0.721213692314798,""t"":248850},{""x"":0.5120901472188005,""y"":0.7209654791823465,""t"":248895.00000000006},{""x"":0.5133657619029319,""y"":0.7205530020414858,""t"":248950},{""x"":0.5143351284754502,""y"":0.7202412427931537,""t"":248994},{""x"":0.5150399810179225,""y"":0.7200161969336822,""t"":249041}]","""","""","""","""","""","2021-01-17 10:25:33",,"Mozilla/5.0 (Macintosh; Intel Mac OS X 10_15_6) AppleWebKit/605.1.15 (KHTML, like Gecko) Version/14.0.2 Safari/605.1.15",Macintosh,Safari,14.0.2,"OS X",10_15_6
8,1,null,"""",null,html-keyboard-response,23,277970,0.0-15.0-2.0-0.3,777,1,1,"FaceTime HD-Kamera (integriert)",29.969999313354492,480,640,"""","""","""","""","""","""","""","""","""","""","""","""","""","""","""","2021-01-17 10:25:33",,"Mozilla/5.0 (Macintosh; Intel Mac OS X 10_15_6) AppleWebKit/605.1.15 (KHTML, like Gecko) Version/14.0.2 Safari/605.1.15",Macintosh,Safari,14.0.2,"OS X",10_15_6
8,1,"""","""","""",eyetracking-calibration,24,285154,0.0-15.0-2.0-1.3,777,1,1,"FaceTime HD-Kamera (integriert)",29.969999313354492,480,640,"""",1920,1080,"""",1,"""",0.2,0.8,0,"[{""x"":0.5155216142502824,""y"":0.7198640885747861,""t"":250595},{""x"":0.5158193618792919,""y"":0.7197718565921412,""t"":250647},{""x"":0.5159695509247997,""y"":0.7197274852075964,""t"":250697},{""x"":0.5160048488912642,""y"":0.719720206618807,""t"":250743},{""x"":0.5159539268402605,""y"":0.7197406011339887,""t"":250788},{""x"":0.51584136903786,""y"":0.7197806176687529,""t"":250836},{""x"":0.5156877682226819,""y"":0.7198335346360116,""t"":250881},{""x"":0.5155099541369952,""y"":0.719893878379727,""t"":250933},{""x"":0.5153213113849728,""y"":0.7199573134971382,""t"":250979},{""x"":0.5151321506410638,""y"":0.7200205167538826,""t"":251022},{""x"":0.5149501045331487,""y"":0.7200810438833392,""t"":251066},{""x"":0.5147805260522996,""y"":0.7201371964117554,""t"":251112},{""x"":0.5146268730375888,""y"":0.7201878937805647,""t"":251164},{""x"":0.514491067142091,""y"":0.7202325544476862,""t"":251210},{""x"":0.5143738197320354,""y"":0.7202709883301147,""t"":251256},{""x"":0.5142749204571334,""y"":0.7203033018823314,""t"":251300},{""x"":0.514193486825041,""y"":0.7203298162654619,""t"":251346},{""x"":0.5157639654383044,""y"":0.7198663198038976,""t"":251398},{""x"":0.5171036814744905,""y"":0.719470714878205,""t"":251446},{""x"":0.5198557246432084,""y"":0.7186562329673427,""t"":251506},{""x"":0.5235164552564294,""y"":0.7174913909139449,""t"":251558},{""x"":0.5276367505775066,""y"":0.7160406588026349,""t"":251611},{""x"":0.5320981682119157,""y"":0.7146053032546064,""t"":251665},{""x"":0.5365271137621538,""y"":0.7129591508596199,""t"":251719},{""x"":0.5407440905652957,""y"":0.7113915595006006,""t"":251782.00000000006},{""x"":0.5447406555372252,""y"":0.7099073989648268,""t"":251838},{""x"":0.5482466792863399,""y"":0.7085069578524554,""t"":251893},{""x"":0.5511772053966636,""y"":0.7071871311562238,""t"":251945},{""x"":0.5525174682843372,""y"":0.7064271101401376,""t"":251997},{""x"":0.5523703931475127,""y"":0.7059048591003131,""t"":252053},{""x"":0.5509865885244217,""y"":0.7058211851617305,""t"":252113},{""x"":0.5484637718201794,""y"":0.7061013148217351,""t"":252168},{""x"":0.5461254284025011,""y"":0.7064332867510748,""t"":252218},{""x"":0.542925425993618,""y"":0.7070327146389296,""t"":252271},{""x"":0.538914655635226,""y"":0.7080848776750566,""t"":252326},{""x"":0.5355053385088264,""y"":0.7090182987432407,""t"":252375},{""x"":0.5313120221022213,""y"":0.7103117398643741,""t"":252434},{""x"":0.5264996713446326,""y"":0.7116507665901296,""t"":252489},{""x"":0.5223051367201683,""y"":0.713007075433124,""t"":252545},{""x"":0.5177374667835214,""y"":0.7143590857308584,""t"":252598},{""x"":0.5141164144195629,""y"":0.7154486961063041,""t"":252648},{""x"":0.5101108960951133,""y"":0.7167860773770756,""t"":252698},{""x"":0.5070213503281509,""y"":0.717842092867703,""t"":252754},{""x"":0.5036399647229962,""y"":0.7188908694269714,""t"":252807},{""x"":0.5000119982426007,""y"":0.7199294327044393,""t"":252862},{""x"":0.4963169530462657,""y"":0.7211983309116022,""t"":252917},{""x"":0.4935285468684898,""y"":0.7221757050330788,""t"":252967.00000000006},{""x"":0.4902931591440344,""y"":0.7231414574282652,""t"":253020.00000000006},{""x"":0.4878970675923949,""y"":0.7238547120476801,""t"":253080.00000000006},{""x"":0.4849887283476182,""y"":0.7248379642582885,""t"":253131},{""x"":0.48135906452948324,""y"":0.7260549739773996,""t"":253186},{""x"":0.4772499715949656,""y"":0.7277120608502745,""t"":253242},{""x"":0.47274336235380826,""y"":0.7294961223600315,""t"":253295},{""x"":0.46777914986900127,""y"":0.7313766126368964,""t"":253348},{""x"":0.46244678339234213,""y"":0.7335694979976959,""t"":253411},{""x"":0.4568268920805126,""y"":0.7357738582637935,""t"":253462},{""x"":0.45099039785150585,""y"":0.7382150584037446,""t"":253518},{""x"":0.4448619292974856,""y"":0.7406021115136315,""t"":253573},{""x"":0.4389220347227679,""y"":0.7429279775365895,""t"":253624},{""x"":0.4333073116617749,""y"":0.7449475447180471,""t"":253678},{""x"":0.4282626770369301,""y"":0.7466976350069198,""t"":253745},{""x"":0.42398763671230744,""y"":0.7482161133199426,""t"":253795},{""x"":0.4209128954264035,""y"":0.7492977745494056,""t"":253842.00000000006},{""x"":0.41830090171965134,""y"":0.7500140755284358,""t"":253891},{""x"":0.41618781070113,""y"":0.7506745906720926,""t"":253942},{""x"":0.41487381563812925,""y"":0.7510621003919452,""t"":253986},{""x"":0.4142018498783568,""y"":0.7512326991588227,""t"":254041},{""x"":0.4140305095575405,""y"":0.7512363969233303,""t"":254089},{""x"":0.414235558528632,""y"":0.7511167295387108,""t"":254136},{""x"":0.41471035899873776,""y"":0.7509107277358923,""t"":254181.00000000006},{""x"":0.41536549197694317,""y"":0.7506491520377481,""t"":254225},{""x"":0.41612779462383875,""y"":0.7503569146988233,""t"":254274},{""x"":0.416939005267971,""y"":0.7500536229981754,""t"":254328},{""x"":0.41843575178537784,""y"":0.7495118512813875,""t"":254383.00000000006},{""x"":0.41952829093187816,""y"":0.7490211301066959,""t"":254433},{""x"":0.420510460673811,""y"":0.7485875470733688,""t"":254479},{""x"":0.4230080113654316,""y"":0.7479709926143073,""t"":254522},{""x"":0.42595515432546643,""y"":0.7472070937943818,""t"":254575},{""x"":0.4304681111741187,""y"":0.7458433142491582,""t"":254633.00000000006},{""x"":0.4362678386230704,""y"":0.7442229565941402,""t"":254679},{""x"":0.44336995921326605,""y"":0.7421616599301031,""t"":254726},{""x"":0.45041251459533066,""y"":0.7399887724933375,""t"":254776},{""x"":0.45609091329559337,""y"":0.7382309028461999,""t"":254826},{""x"":0.4629908233070107,""y"":0.7361220820166029,""t"":254874},{""x"":0.4711632703970911,""y"":0.7337276502731438,""t"":254931.00000000006},{""x"":0.47627466781176975,""y"":0.7320765235379009,""t"":254978},{""x"":0.48008032734672473,""y"":0.7308339568971568,""t"":255028},{""x"":0.48277116447955265,""y"":0.7299422663243015,""t"":255074},{""x"":0.4819423097182037,""y"":0.7303143161090188,""t"":255127},{""x"":0.47951876430483903,""y"":0.7310243783211375,""t"":255175},{""x"":0.47705501584237475,""y"":0.7317502022374179,""t"":255236},{""x"":0.4746592328995069,""y"":0.7324588958396933,""t"":255287},{""x"":0.47118173701658733,""y"":0.7336115333714937,""t"":255338},{""x"":0.4680845274445547,""y"":0.7346349564799725,""t"":255386},{""x"":0.4678445112025685,""y"":0.7347954044801978,""t"":255433},{""x"":0.46764127406924055,""y"":0.7349293072715765,""t"":255476},{""x"":0.4674732449276545,""y"":0.7350383054342522,""t"":255531},{""x"":0.4673378684564958,""y"":0.735124597216604,""t"":255579},{""x"":0.46723196399807665,""y"":0.7351907054549809,""t"":255623},{""x"":0.4671520152852209,""y"":0.7352392926322315,""t"":255668},{""x"":0.46709439764025346,""y"":0.7352730188056628,""t"":255714},{""x"":0.46705555000666477,""y"":0.7352944368151432,""t"":255763},{""x"":0.46703209943402374,""y"":0.735305919167393,""t"":255813},{""x"":0.46702094552664,""y"":0.7353096112037806,""t"":255859.00000000006},{""x"":0.4657924692298873,""y"":0.7355497448388005,""t"":255908},{""x"":0.46475502641192873,""y"":0.7357492779205403,""t"":255955.00000000006},{""x"":0.4638997357916924,""y"":0.7359109285426855,""t"":256002},{""x"":0.4632128212701038,""y"":0.736038204807018,""t"":256050},{""x"":0.46513112454039157,""y"":0.7354080410894471,""t"":256100},{""x"":0.46558779606366124,""y"":0.7353452590897638,""t"":256150},{""x"":0.4659883460395672,""y"":0.7352925645506669,""t"":256195},{""x"":0.46633158786304574,""y"":0.7352494057728799,""t"":256243},{""x"":0.4666189168034981,""y"":0.735214997518177,""t"":256291},{""x"":0.4656267362032153,""y"":0.7354307525644053,""t"":256339},{""x"":0.4647703127858118,""y"":0.7356170036299412,""t"":256394},{""x"":0.4640480581514131,""y"":0.7357740909513785,""t"":256443.00000000006},{""x"":0.463453482081035,""y"":0.7359034215704541,""t"":256489},{""x"":0.4617498899431576,""y"":0.7364918129775873,""t"":256539},{""x"":0.4603361213628056,""y"":0.7369845132477879,""t"":256586},{""x"":0.45919235409612447,""y"":0.737387039968428,""t"":256632},{""x"":0.4582932528743847,""y"":0.7377070404994384,""t"":256684},{""x"":0.4563835736699061,""y"":0.7381957707758873,""t"":256738},{""x"":0.4548445601576926,""y"":0.7385840579354688,""t"":256782.00000000006},{""x"":0.4536401954326762,""y"":0.7388828015156911,""t"":256831},{""x"":0.45273062594648167,""y"":0.7391035972601221,""t"":256877},{""x"":0.4509842182885641,""y"":0.7397427739461122,""t"":256925},{""x"":0.44961459930405007,""y"":0.740254213854857,""t"":256979},{""x"":0.4485774358854801,""y"":0.7406510790527214,""t"":257029},{""x"":0.44782682177675187,""y"":0.7409476277136522,""t"":257073},{""x"":0.44731750872201925,""y"":0.7411583621410055,""t"":257119},{""x"":0.4470065275852085,""y"":0.7412973900989578,""t"":257168},{""x"":0.44576376795504286,""y"":0.7416203082474083,""t"":257231},{""x"":0.44480774386054445,""y"":0.741860547508599,""t"":257279},{""x"":0.44410129937166304,""y"":0.7420302256710726,""t"":257326},{""x"":0.4426529005627092,""y"":0.7423834248535967,""t"":257379},{""x"":0.44152385606197825,""y"":0.7426524724641883,""t"":257433},{""x"":0.4406753301053209,""y"":0.7428487299633167,""t"":257480},{""x"":0.44006753341291793,""y"":0.7429834701256133,""t"":257527},{""x"":0.4385710228324706,""y"":0.7435521320948774,""t"":257578},{""x"":0.4374030982222369,""y"":0.7440073254243316,""t"":257626},{""x"":0.43652404859313376,""y"":0.744360707066242,""t"":257683},{""x"":0.43493889628340615,""y"":0.7448672574786506,""t"":257734.00000000006}]","""","""","""","""","""","2021-01-17 10:25:33",,"Mozilla/5.0 (Macintosh; Intel Mac OS X 10_15_6) AppleWebKit/605.1.15 (KHTML, like Gecko) Version/14.0.2 Safari/605.1.15",Macintosh,Safari,14.0.2,"OS X",10_15_6
8,1,null,"""",null,html-keyboard-response,25,286663,0.0-15.0-2.0-0.4,777,1,1,"FaceTime HD-Kamera (integriert)",29.969999313354492,480,640,"""","""","""","""","""","""","""","""","""","""","""","""","""","""","""","2021-01-17 10:25:33",,"Mozilla/5.0 (Macintosh; Intel Mac OS X 10_15_6) AppleWebKit/605.1.15 (KHTML, like Gecko) Version/14.0.2 Safari/605.1.15",Macintosh,Safari,14.0.2,"OS X",10_15_6
8,1,"""","""","""",eyetracking-calibration,26,294858,0.0-15.0-2.0-1.4,777,1,1,"FaceTime HD-Kamera (integriert)",29.969999313354492,480,640,"""",1920,1080,"""",1,"""",0.8,0.5,0,"[{""x"":0.4337049865850042,""y"":0.7452611702480938,""t"":259287},{""x"":0.43277929387020664,""y"":0.745556313580944,""t"":259340},{""x"":0.4303457316089822,""y"":0.7462515191815032,""t"":259394},{""x"":0.4266270489887173,""y"":0.7472879218246727,""t"":259446},{""x"":0.4236107355480088,""y"":0.7481238615028745,""t"":259493},{""x"":0.4195967186628588,""y"":0.7495056915986357,""t"":259549},{""x"":0.4148938202954176,""y"":0.7508611854761013,""t"":259605},{""x"":0.4097779804643195,""y"":0.7524225501549929,""t"":259660},{""x"":0.40435361105654255,""y"":0.7541474167520137,""t"":259710},{""x"":0.40007318325655017,""y"":0.755513346708227,""t"":259760},{""x"":0.3968069445623913,""y"":0.7565601469900805,""t"":259813},{""x"":0.3944189065206261,""y"":0.757329854175068,""t"":259867},{""x"":0.39277386650464,""y"":0.7578644848572065,""t"":259924},{""x"":0.39174256056293816,""y"":0.7582043756229211,""t"":259977},{""x"":0.3912052322617068,""y"":0.7583870240833255,""t"":260026},{""x"":0.391053890653005,""y"":0.7584463457568411,""t"":260076},{""x"":0.3911935109684633,""y"":0.7584122674152833,""t"":260123},{""x"":0.3903155644101372,""y"":0.758552924259193,""t"":260179},{""x"":0.38853539015162286,""y"":0.7590960455466049,""t"":260243},{""x"":0.38638284585846255,""y"":0.7597458256254354,""t"":260298},{""x"":0.38528000765591164,""y"":0.7602429543164994,""t"":260355},{""x"":0.38521473389600136,""y"":0.7603653423888128,""t"":260417},{""x"":0.3849307382285795,""y"":0.7606541999020068,""t"":260473},{""x"":0.3856614374345693,""y"":0.7606065278729974,""t"":260534},{""x"":0.3875087846759367,""y"":0.7602755969265939,""t"":260594},{""x"":0.39027244579548126,""y"":0.7597119618282763,""t"":260651},{""x"":0.39390451874659166,""y"":0.758719829336444,""t"":260706},{""x"":0.39835586304879783,""y"":0.7576196143897532,""t"":260761},{""x"":0.4020788970342076,""y"":0.7566888519770414,""t"":260813},{""x"":0.4064798414503373,""y"":0.7554354024095723,""t"":260864},{""x"":0.41127695279097126,""y"":0.75392000482304,""t"":260923},{""x"":0.4163621994373427,""y"":0.7521978831666978,""t"":260978},{""x"":0.420417562006039,""y"":0.750802679589088,""t"":261029},{""x"":0.424778703951,""y"":0.7492194488170539,""t"":261083},{""x"":0.42965116107549883,""y"":0.7472444169041447,""t"":261146},{""x"":0.43507137871857865,""y"":0.744948313143719,""t"":261203},{""x"":0.4407925645740134,""y"":0.7426384195339765,""t"":261267},{""x"":0.4468725794660019,""y"":0.740094159618206,""t"":261317},{""x"":0.453087929543769,""y"":0.7376099574963997,""t"":261369},{""x"":0.4593839249785677,""y"":0.7349528172433947,""t"":261425},{""x"":0.464217518997197,""y"":0.7328902380160714,""t"":261474},{""x"":0.46941568002492384,""y"":0.7306213362596679,""t"":261527},{""x"":0.47328888868785984,""y"":0.7289069615564497,""t"":261583},{""x"":0.4775298866925374,""y"":0.7269429078232089,""t"":261639},{""x"":0.4822377106660422,""y"":0.724519932825927,""t"":261695},{""x"":0.4872149854937812,""y"":0.7219497282649211,""t"":261751},{""x"":0.49228467281672245,""y"":0.7190202618999127,""t"":261808},{""x"":0.49701913324668145,""y"":0.7160372158147716,""t"":261863},{""x"":0.5014629586963675,""y"":0.713022748690551,""t"":261934},{""x"":0.5056605890050822,""y"":0.7099944650132699,""t"":261989},{""x"":0.5096545904449401,""y"":0.7069659093041789,""t"":262042},{""x"":0.5133481431811556,""y"":0.7039470919065034,""t"":262100},{""x"":0.5166610331311933,""y"":0.7009450172308588,""t"":262168},{""x"":0.5196648008071227,""y"":0.6982065321899107,""t"":262224},{""x"":0.5221518824739064,""y"":0.6959401278710329,""t"":262281},{""x"":0.5242208643495421,""y"":0.6940753757802315,""t"":262335},{""x"":0.5259611006856594,""y"":0.6925443616390327,""t"":262391},{""x"":0.5273152727556896,""y"":0.6912837190115763,""t"":262448},{""x"":0.5283720381855385,""y"":0.690235950431902,""t"":262507},{""x"":0.5290723218857546,""y"":0.6895925094610575,""t"":262563},{""x"":0.5293659964918666,""y"":0.689273074526397,""t"":262614},{""x"":0.5296204748044684,""y"":0.6892055049223986,""t"":262671},{""x"":0.5297408985040724,""y"":0.689084219522023,""t"":262726},{""x"":0.5297782227657959,""y"":0.6891337259585255,""t"":262778},{""x"":0.5296370440865292,""y"":0.6893073613887585,""t"":262831},{""x"":0.5295059926405539,""y"":0.6895657562342253,""t"":262883.00000000006},{""x"":0.529271938315699,""y"":0.6898764856852587,""t"":262928},{""x"":0.528971116024676,""y"":0.690213537171994,""t"":262977},{""x"":0.52863292327667,""y"":0.6905566630743496,""t"":263025},{""x"":0.5282805445877944,""y"":0.6906483350510617,""t"":263077},{""x"":0.5279316587079393,""y"":0.6907563738412762,""t"":263128},{""x"":0.527735494821035,""y"":0.6908722138881641,""t"":263178},{""x"":0.5275441826118401,""y"":0.6909892222785375,""t"":263224},{""x"":0.5273640345932166,""y"":0.6911024558028099,""t"":263271},{""x"":0.5271992686532188,""y"":0.6912084146303407,""t"":263316},{""x"":0.5270523891051928,""y"":0.6913048032486553,""t"":263375},{""x"":0.526924535921525,""y"":0.6913903062401489,""t"":263427},{""x"":0.5269521124989119,""y"":0.6914643838996091,""t"":263480},{""x"":0.5250692501975752,""y"":0.6924964478406549,""t"":263526},{""x"":0.5253784370335007,""y"":0.6921605996942678,""t"":263577},{""x"":0.5256742720820433,""y"":0.6918563782629158,""t"":263621.00000000006},{""x"":0.5259485249537327,""y"":0.6915875632836752,""t"":263674},{""x"":0.5242875526741736,""y"":0.6925672385143211,""t"":263726},{""x"":0.5208383762622278,""y"":0.6943709612956708,""t"":263774},{""x"":0.5179408212661339,""y"":0.6958890017683244,""t"":263817},{""x"":0.5135206153702652,""y"":0.6983476622182027,""t"":263865},{""x"":0.5098865668742981,""y"":0.7003751035340902,""t"":263910},{""x"":0.5069769467538922,""y"":0.7020038330757732,""t"":263956},{""x"":0.5047174706500225,""y"":0.7032736524117895,""t"":264009},{""x"":0.5008464752716516,""y"":0.7056822066273062,""t"":264059},{""x"":0.49778993466598326,""y"":0.7076021487198588,""t"":264104},{""x"":0.4931384554676858,""y"":0.7102969644075127,""t"":264148},{""x"":0.48946027877637344,""y"":0.7124288351916834,""t"":264197},{""x"":0.4866464436862131,""y"":0.7140606056712535,""t"":264245},{""x"":0.4845822505732656,""y"":0.7152584929531338,""t"":264300},{""x"":0.48069962347377715,""y"":0.7175426154392424,""t"":264346},{""x"":0.4751204981996309,""y"":0.7207583341762045,""t"":264394},{""x"":0.47070780939676654,""y"":0.7233005252644882,""t"":264441},{""x"":0.4644685258949964,""y"":0.7269410885753433,""t"":264486},{""x"":0.45955714334563263,""y"":0.7298087706994408,""t"":264532.00000000006},{""x"":0.45282182004591165,""y"":0.7336885746886322,""t"":264582},{""x"":0.4475516902520916,""y"":0.7367223392474579,""t"":264631},{""x"":0.44043688162658057,""y"":0.7409499717984508,""t"":264676},{""x"":0.43490266991070553,""y"":0.7442463158457877,""t"":264723},{""x"":0.43239050023753606,""y"":0.745755112148475,""t"":264777},{""x"":0.43082090720409577,""y"":0.7467069781477175,""t"":264824},{""x"":0.4300094016463943,""y"":0.7472099516911296,""t"":264876},{""x"":0.4312892091038543,""y"":0.7463922280913085,""t"":264928},{""x"":0.43278984573430423,""y"":0.7454544451894342,""t"":264974},{""x"":0.43439403958927786,""y"":0.7444651930684218,""t"":265024},{""x"":0.43601110758192524,""y"":0.743477149864545,""t"":265071},{""x"":0.4390730650258645,""y"":0.7418021406084327,""t"":265121.00000000006},{""x"":0.441807981824656,""y"":0.7403032741158003,""t"":265173},{""x"":0.444193059516415,""y"":0.7389938541211397,""t"":265224},{""x"":0.4462253318618497,""y"":0.7378761940386126,""t"":265273},{""x"":0.44941606627024405,""y"":0.7359750444908807,""t"":265324},{""x"":0.45206319442004533,""y"":0.7343933815531282,""t"":265372},{""x"":0.4542040781494163,""y"":0.7331102735755529,""t"":265422},{""x"":0.4572495234480944,""y"":0.731371416639991,""t"":265474},{""x"":0.45968534629322166,""y"":0.7299819344230126,""t"":265525},{""x"":0.4615745614243269,""y"":0.7289054560188961,""t"":265573},{""x"":0.4644848292801849,""y"":0.7271333671500826,""t"":265624},{""x"":0.46676116100016374,""y"":0.7257405285378928,""t"":265672},{""x"":0.4684792560098564,""y"":0.7246828830828057,""t"":265722.00000000006},{""x"":0.4697171259295595,""y"":0.7239146197984336,""t"":265779},{""x"":0.47177824031509197,""y"":0.7226634305580832,""t"":265831},{""x"":0.47332438375981967,""y"":0.7217222241203165,""t"":265880},{""x"":0.47442905908752186,""y"":0.7210471728583812,""t"":265928},{""x"":0.4751640283062387,""y"":0.7205953713993716,""t"":265978},{""x"":0.4769600826835738,""y"":0.7195992777950521,""t"":266028},{""x"":0.47831158925952655,""y"":0.7188577516891841,""t"":266082},{""x"":0.4792813333515925,""y"":0.7183335551249195,""t"":266131},{""x"":0.4799307981879652,""y"":0.7179905828270482,""t"":266186},{""x"":0.48154491167604774,""y"":0.7170679787883065,""t"":266237},{""x"":0.4827661652927658,""y"":0.7163709393289457,""t"":266284},{""x"":0.4836489786054687,""y"":0.7158680541727745,""t"":266332},{""x"":0.48424694163139936,""y"":0.7155284389771387,""t"":266376},{""x"":0.4858377507638269,""y"":0.7145958037987142,""t"":266428},{""x"":0.48705744108722987,""y"":0.7138792465815488,""t"":266475},{""x"":0.4879548039161844,""y"":0.7133506135006237,""t"":266530},{""x"":0.48857863547474106,""y"":0.7129816712868203,""t"":266578},{""x"":0.49006632855406845,""y"":0.7120182290653891,""t"":266627},{""x"":0.49120743728414923,""y"":0.7112709931253749,""t"":266676},{""x"":0.4943648157599343,""y"":0.7095012954038024,""t"":266726},{""x"":0.4991002192367111,""y"":0.7066210534818669,""t"":266778},{""x"":0.5029621806995207,""y"":0.7042689306339226,""t"":266832},{""x"":0.5069804519666781,""y"":0.7019152477875316,""t"":266886},{""x"":0.5101451506664657,""y"":0.7000649810508474,""t"":266936},{""x"":0.5125542520154313,""y"":0.6986597052005727,""t"":266984.00000000006},{""x"":0.5154005622010062,""y"":0.6969116320729501,""t"":267032.00000000006},{""x"":0.517531455231628,""y"":0.695596688169269,""t"":267086},{""x"":0.5190497204795915,""y"":0.6946536276181722,""t"":267135},{""x"":0.5200555250513345,""y"":0.6940224952659387,""t"":267183},{""x"":0.5215973411892055,""y"":0.693161986459024,""t"":267231},{""x"":0.5226640584991544,""y"":0.692577523553948,""t"":267281},{""x"":0.5233377454356993,""y"":0.6922200222018456,""t"":267327},{""x"":0.5236945680400839,""y"":0.6920442495017294,""t"":267381},{""x"":0.5247575270836984,""y"":0.6915249300814075,""t"":267434}]","""","""","""","""","""","2021-01-17 10:25:33",,"Mozilla/5.0 (Macintosh; Intel Mac OS X 10_15_6) AppleWebKit/605.1.15 (KHTML, like Gecko) Version/14.0.2 Safari/605.1.15",Macintosh,Safari,14.0.2,"OS X",10_15_6
8,1,null,"""",null,html-keyboard-response,27,296362,0.0-15.0-2.0-0.5,777,1,1,"FaceTime HD-Kamera (integriert)",29.969999313354492,480,640,"""","""","""","""","""","""","""","""","""","""","""","""","""","""","""","2021-01-17 10:25:33",,"Mozilla/5.0 (Macintosh; Intel Mac OS X 10_15_6) AppleWebKit/605.1.15 (KHTML, like Gecko) Version/14.0.2 Safari/605.1.15",Macintosh,Safari,14.0.2,"OS X",10_15_6
8,1,"""","""","""",eyetracking-calibration,28,303007,0.0-15.0-2.0-1.5,777,1,1,"FaceTime HD-Kamera (integriert)",29.969999313354492,480,640,"""",1920,1080,"""",1,"""",0.5,0.2,0,"[{""x"":0.5215368046602236,""y"":0.6933648990222276,""t"":268989},{""x"":0.5186357339739536,""y"":0.6950229675103082,""t"":269050},{""x"":0.5160856325785845,""y"":0.6964810290577255,""t"":269099},{""x"":0.5138957113406563,""y"":0.6977336430492173,""t"":269148},{""x"":0.5120584952878053,""y"":0.698784935377515,""t"":269197},{""x"":0.510554486991703,""y"":0.6996459311125685,""t"":269246.00000000006},{""x"":0.5093560859093536,""y"":0.7003323118449589,""t"":269298},{""x"":0.5084308030818846,""y"":0.7008625754388078,""t"":269342.00000000006},{""x"":0.507743828205446,""y"":0.7012565658079507,""t"":269393},{""x"":0.5072600168341951,""y"":0.7015343341402515,""t"":269437},{""x"":0.506945370722825,""y"":0.7017152899546959,""t"":269483},{""x"":0.5067680852966328,""y"":0.7018175997807271,""t"":269528},{""x"":0.5066992360286592,""y"":0.7018577924828274,""t"":269580.00000000006},{""x"":0.5067131710281088,""y"":0.701850532788088,""t"":269626},{""x"":0.5067876711727772,""y"":0.7018085279694347,""t"":269674},{""x"":0.5069039322787983,""y"":0.7017425365325997,""t"":269722.00000000006},{""x"":0.5070464165919233,""y"":0.7016614518654657,""t"":269773},{""x"":0.5072026136882286,""y"":0.701572437914854,""t"":269822},{""x"":0.5073627439704834,""y"":0.7014810978964823,""t"":269871.00000000006},{""x"":0.5095641694652461,""y"":0.700179964155141,""t"":269924},{""x"":0.5133586984888692,""y"":0.6980960919022908,""t"":269982},{""x"":0.518331660782838,""y"":0.6951278060131708,""t"":270034},{""x"":0.5224737784579031,""y"":0.6926524330268148,""t"":270080.00000000006},{""x"":0.5258383399312867,""y"":0.6906390716814522,""t"":270131},{""x"":0.5284955037136704,""y"":0.6890465973685594,""t"":270185},{""x"":0.5305251024494053,""y"":0.6878279677551945,""t"":270231},{""x"":0.5320109469123776,""y"":0.6869336360497336,""t"":270277},{""x"":0.5330364631306268,""y"":0.6863141701855119,""t"":270322},{""x"":0.5336814866396011,""y"":0.685922181947892,""t"":270369},{""x"":0.5340200380670468,""y"":0.6857136701932386,""t"":270417},{""x"":0.534118911369889,""y"":0.685648878271308,""t"":270473},{""x"":0.5358090241888519,""y"":0.6847234015738161,""t"":270529},{""x"":0.5387389566681187,""y"":0.6828100545907637,""t"":270585},{""x"":0.5425794844186584,""y"":0.6803020733016204,""t"":270639},{""x"":0.5471671334729933,""y"":0.6773076988658446,""t"":270695},{""x"":0.5515337093058913,""y"":0.6729567629701717,""t"":270752},{""x"":0.5547130115850377,""y"":0.6691795508975328,""t"":270813},{""x"":0.6157369428444281,""y"":0.6181980655915353,""t"":270865},{""x"":0.6643088842435865,""y"":0.5724388308102919,""t"":270918},{""x"":0.7023991827502603,""y"":0.5329143180004489,""t"":270976},{""x"":0.7309525266745115,""y"":0.4993023383171327,""t"":271033},{""x"":0.7509080190798205,""y"":0.47088835602575546,""t"":271108},{""x"":0.765460147214036,""y"":0.4490831910831,""t"":271158},{""x"":0.7738105759270371,""y"":0.43156731492007216,""t"":271213},{""x"":0.7767311598079605,""y"":0.4174497942975171,""t"":271271},{""x"":0.775510919905709,""y"":0.4061438307415134,""t"":271335},{""x"":0.7726700639366444,""y"":0.3988011504798584,""t"":271390},{""x"":0.767109552019804,""y"":0.39297909656240193,""t"":271444},{""x"":0.7591049158233133,""y"":0.38776886696668045,""t"":271498},{""x"":0.7475313561074444,""y"":0.38119017714893016,""t"":271556.00000000006},{""x"":0.7370205115873918,""y"":0.3771521938850937,""t"":271607},{""x"":0.7243029239977868,""y"":0.37175723512753867,""t"":271673},{""x"":0.7093988743159888,""y"":0.3643334947026915,""t"":271729.00000000006},{""x"":0.6930090020890944,""y"":0.35532466797317436,""t"":271784},{""x"":0.6753211536743997,""y"":0.34491550376118646,""t"":271841},{""x"":0.6567568011721564,""y"":0.33329789716495,""t"":271901},{""x"":0.6377981608545373,""y"":0.3206614137621625,""t"":271956},{""x"":0.6187011936047071,""y"":0.30742872551671957,""t"":272022},{""x"":0.6036135109145278,""y"":0.29736495729444873,""t"":272074},{""x"":0.5884032226278549,""y"":0.2866468284257593,""t"":272131},{""x"":0.5738294877666664,""y"":0.276083650254828,""t"":272184},{""x"":0.5599854928197343,""y"":0.2658921884867858,""t"":272237},{""x"":0.5496580724982512,""y"":0.2584354944250684,""t"":272289},{""x"":0.5394735223574456,""y"":0.250869946956618,""t"":272351},{""x"":0.5299098710866746,""y"":0.24339924789921874,""t"":272403},{""x"":0.5211053639328271,""y"":0.23644906253192943,""t"":272454},{""x"":0.5149453671977253,""y"":0.23159811008284423,""t"":272500},{""x"":0.5109818832560168,""y"":0.228489224789875,""t"":272548},{""x"":0.5087971123644853,""y"":0.2267896768306072,""t"":272610},{""x"":0.5065126333589307,""y"":0.22498626740503394,""t"":272665},{""x"":0.5042906500354657,""y"":0.22299416750497056,""t"":272720},{""x"":0.5024260367593996,""y"":0.2210005678453711,""t"":272775},{""x"":0.5009116229706403,""y"":0.2194227625863369,""t"":272830.00000000006},{""x"":0.4997488776088303,""y"":0.21789872666519605,""t"":272883.00000000006},{""x"":0.49935453729473755,""y"":0.21709171528549248,""t"":272940},{""x"":0.49899785564099813,""y"":0.21636137002208666,""t"":273000},{""x"":0.4991458070042015,""y"":0.2161278549896211,""t"":273055},{""x"":0.4996604517798922,""y"":0.21627039153349037,""t"":273105},{""x"":0.5000164719684578,""y"":0.21620022920046136,""t"":273158},{""x"":0.500588294209818,""y"":0.21638710138165407,""t"":273214},{""x"":0.501024142497993,""y"":0.2165139896821879,""t"":273266},{""x"":0.5015736778130049,""y"":0.216797206327616,""t"":273323},{""x"":0.5021853653799406,""y"":0.21718461125733732,""t"":273378},{""x"":0.5029550110038435,""y"":0.21763358152329876,""t"":273429},{""x"":0.503695095779902,""y"":0.2181102096959684,""t"":273480},{""x"":0.5043840245965462,""y"":0.21858836664431708,""t"":273533},{""x"":0.5050078818313056,""y"":0.21904870133179738,""t"":273584},{""x"":0.5055589729467428,""y"":0.2194776337542389,""t"":273641},{""x"":0.506034501227474,""y"":0.21986638272774944,""t"":273691},{""x"":0.5064353967334952,""y"":0.22021005793738208,""t"":273742},{""x"":0.5067653040431709,""y"":0.22050683541289098,""t"":273788},{""x"":0.5070297273454653,""y"":0.22075722727507818,""t"":273842.00000000006},{""x"":0.5072353255817372,""y"":0.22096345002195136,""t"":273894},{""x"":0.5073893463009792,""y"":0.22112889060109292,""t"":273951},{""x"":0.5074991843616818,""y"":0.22125766583629003,""t"":274001},{""x"":0.5075720502947406,""y"":0.2213542682365026,""t"":274051},{""x"":0.5076147327700657,""y"":0.22142328961636876,""t"":274101},{""x"":0.5076334399516873,""y"":0.22146921311672854,""t"":274149},{""x"":0.5076337053817631,""y"":0.22149626396597466,""t"":274207},{""x"":0.5076203452346912,""y"":0.22150830952301553,""t"":274259},{""x"":0.5075974551905701,""y"":0.221508799665171,""t"":274311},{""x"":0.50756843668249,""y"":0.2215007393242865,""t"":274362},{""x"":0.5075360437894818,""y"":0.22148668584550915,""t"":274411},{""x"":0.5075024435130883,""y"":0.22146876477665967,""t"":274464},{""x"":0.5074692835457517,""y"":0.22144869863864014,""t"":274512},{""x"":0.5074377628843325,""y"":0.22142784413913344,""t"":274569},{""x"":0.5074087017454664,""y"":0.22140723414486066,""t"":274623},{""x"":0.5073826081945159,""y"":0.22138762150345975,""t"":274670},{""x"":0.5073597397075335,""y"":0.22136952249408612,""t"":274719},{""x"":0.5073401585524996,""y"":0.22135325828182026,""t"":274771},{""x"":0.5073237804125569,""y"":0.221338993255366,""t"":274820},{""x"":0.5073104160928913,""y"":0.2213267695443165,""t"":274876},{""x"":0.5072998064684737,""y"":0.22131653734786524,""t"":274925},{""x"":0.5072916510566157,""y"":0.2213081809691914,""t"":274975},{""x"":0.5072856307504692,""y"":0.22130154064763152,""t"":275024},{""x"":0.5072814253407044,""y"":0.2212964304231879,""t"":275072},{""x"":0.5072787264949964,""y"":0.2212926523637869,""t"":275121.00000000006},{""x"":0.5072772468697111,""y"":0.22129000754338013,""t"":275177},{""x"":0.5072767260049734,""y"":0.2212883041861805,""t"":275229.00000000006},{""x"":0.5072769336113482,""y"":0.22128736339594787,""t"":275275},{""x"":0.5072776708005575,""y"":0.22128702287531096,""t"":275325},{""x"":0.5072787697495568,""y"":0.22128713901377717,""t"":275374},{""x"":0.5072800922213145,""y"":0.22128758768863305,""t"":275424},{""x"":0.5072815273001531,""y"":0.22128826408386393,""t"":275482},{""x"":0.5072829886369772,""y"":0.22128908179127973,""t"":275531},{""x"":0.5072844114418447,""y"":0.221289971417338,""t"":275582}]","""","""","""","""","""","2021-01-17 10:25:33",,"Mozilla/5.0 (Macintosh; Intel Mac OS X 10_15_6) AppleWebKit/605.1.15 (KHTML, like Gecko) Version/14.0.2 Safari/605.1.15",Macintosh,Safari,14.0.2,"OS X",10_15_6
8,1,null,"""",null,html-keyboard-response,29,304514,0.0-15.0-2.0-0.6,777,1,1,"FaceTime HD-Kamera (integriert)",29.969999313354492,480,640,"""","""","""","""","""","""","""","""","""","""","""","""","""","""","""","2021-01-17 10:25:33",,"Mozilla/5.0 (Macintosh; Intel Mac OS X 10_15_6) AppleWebKit/605.1.15 (KHTML, like Gecko) Version/14.0.2 Safari/605.1.15",Macintosh,Safari,14.0.2,"OS X",10_15_6
