run_id,condition,rt,stimulus,key_press,trial_type,trial_index,time_elapsed,internal_node_id,subject,chinFirst,choiceTask_amountLeftFirst,webcam_label,webcam_fps,webcam_height,webcam_width,button_pressed,window_width,window_height,responses,chin,success,x_pos,y_pos,task_nr,et_data,trial_duration,option_topLeft,option_bottomLeft,option_topRight,option_bottomRight,recorded_at,ip,user_agent,device,browser,browser_version,platform,platform_version
9,1,null,"""",null,html-keyboard-response,0,104,0.0-0.0,299,0,0,"FaceTime HD-Kamera (integriert)",29.969999313354492,480,640,"""","""","""","""","""","""","""","""","""","""","""","""","""","""","""","2021-01-17 11:01:37",,"Mozilla/5.0 (Macintosh; Intel Mac OS X 10_15_6) AppleWebKit/605.1.15 (KHTML, like Gecko) Version/14.0.2 Safari/605.1.15",Macintosh,Safari,14.0.2,"OS X",10_15_6
9,1,4046,"<div style=""position: fixed; display: inline-block; top: 20%; right: 20%; text-align: right;""><img src=""fu_logo.PNG"" alt=""[FU Berlin Logo]"" style=""width: 25%;""></div><div><br><br><p><strong>Welcome, dear participant! </strong></p><p>Thank you for your interest in and your support for our research.<br> This study is run by researchers at Freie Universität Berlin. </p></div>","""",html-button-response,1,4157,0.0-1.0,299,0,0,"FaceTime HD-Kamera (integriert)",29.969999313354492,480,640,0,1920,895,"""","""","""","""","""","""","""","""","""","""","""","""","2021-01-17 11:01:37",,"Mozilla/5.0 (Macintosh; Intel Mac OS X 10_15_6) AppleWebKit/605.1.15 (KHTML, like Gecko) Version/14.0.2 Safari/605.1.15",Macintosh,Safari,14.0.2,"OS X",10_15_6
9,1,67105,"""","""",survey-html-form,2,71265,0.0-2.0,299,0,0,"FaceTime HD-Kamera (integriert)",29.969999313354492,480,640,"""","""","""","{""prolificID"":""WinterSP72""}","""","""","""","""","""","""","""","""","""","""","""","2021-01-17 11:01:37",,"Mozilla/5.0 (Macintosh; Intel Mac OS X 10_15_6) AppleWebKit/605.1.15 (KHTML, like Gecko) Version/14.0.2 Safari/605.1.15",Macintosh,Safari,14.0.2,"OS X",10_15_6
9,1,3899,"<p>Please, use only <strong>one monitor</strong> for this study.<br>If necessary, switch off the other monitors.</p>","""",html-button-response,3,75167,0.0-3.0,299,0,0,"FaceTime HD-Kamera (integriert)",29.969999313354492,480,640,0,"""","""","""","""","""","""","""","""","""","""","""","""","""","""","2021-01-17 11:01:37",,"Mozilla/5.0 (Macintosh; Intel Mac OS X 10_15_6) AppleWebKit/605.1.15 (KHTML, like Gecko) Version/14.0.2 Safari/605.1.15",Macintosh,Safari,14.0.2,"OS X",10_15_6
9,1,11068.999999999985,"<p><strong>Please turn your mobile phone into Airplane Mode and close all CPU- or data-intensive programs and websites!</strong><br> (e.g. running Youtube Videos or Torrents)</p>","""",html-button-response,4,86237,0.0-4.0,299,0,0,"FaceTime HD-Kamera (integriert)",29.969999313354492,480,640,0,"""","""","""","""","""","""","""","""","""","""","""","""","""","""","2021-01-17 11:01:37",,"Mozilla/5.0 (Macintosh; Intel Mac OS X 10_15_6) AppleWebKit/605.1.15 (KHTML, like Gecko) Version/14.0.2 Safari/605.1.15",Macintosh,Safari,14.0.2,"OS X",10_15_6
9,1,"""","""","""",eyetracking-init,5,106435,0.0-5.0,299,0,0,"FaceTime HD-Kamera (integriert)",29.969999313354492,480,640,"""",1920,895,"""",0,"""","""","""","""","""","""","""","""","""","""","2021-01-17 11:01:37",,"Mozilla/5.0 (Macintosh; Intel Mac OS X 10_15_6) AppleWebKit/605.1.15 (KHTML, like Gecko) Version/14.0.2 Safari/605.1.15",Macintosh,Safari,14.0.2,"OS X",10_15_6
9,1,null,"""",null,html-keyboard-response,6,106537,0.0-6.0,299,0,0,"FaceTime HD-Kamera (integriert)",29.969999313354492,480,640,"""","""","""","""","""","""","""","""","""","""","""","""","""","""","""","2021-01-17 11:01:37",,"Mozilla/5.0 (Macintosh; Intel Mac OS X 10_15_6) AppleWebKit/605.1.15 (KHTML, like Gecko) Version/14.0.2 Safari/605.1.15",Macintosh,Safari,14.0.2,"OS X",10_15_6
9,1,17356,"<div style=""width: 45%; text-align: left; margin: auto;""><p><strong>For a preliminary adjustment, please consider the following instructions: </strong></p><ol><li>Sit at a table and make sure that you could later rest your elbows on it. </li><li>Sit towards a window or lamp so that there are no shadows on your face. You might additionally turn on a desk lamp for that. </li></ol></div><img src=""lightInstruct.PNG"" alt=""[Eye-Tracking-Instructions]"" style=""width: 70%;"">","""",html-button-response,7,123902,0.0-7.0,299,0,0,"FaceTime HD-Kamera (integriert)",29.969999313354492,480,640,0,"""","""","""","""","""","""","""","""","""","""","""","""","""","""","2021-01-17 11:01:37",,"Mozilla/5.0 (Macintosh; Intel Mac OS X 10_15_6) AppleWebKit/605.1.15 (KHTML, like Gecko) Version/14.0.2 Safari/605.1.15",Macintosh,Safari,14.0.2,"OS X",10_15_6
9,1,6888,"<div style=""width: 45%; text-align: left; margin: auto;""><ol start='3'><li>Check the video and stay in the highlighted rectangle so that it becomes green. </li><li>Try as much as possible to follow the instructions on these pictures and avoid moving your head. If you move too much, the calibration can fail and you might not be able to finish the study. </li><li><strong>If necessary, adjust your laptop, monitor, webcam, or chair. </strong></li></ol></div><img src=""ETInstructions.PNG"" alt=""[Eye-Tracking-Instructions]"" style=""width: 70%;"">","""",html-button-response,8,130792,0.0-8.0,299,0,0,"FaceTime HD-Kamera (integriert)",29.969999313354492,480,640,0,"""","""","""","""","""","""","""","""","""","""","""","""","""","""","2021-01-17 11:01:37",,"Mozilla/5.0 (Macintosh; Intel Mac OS X 10_15_6) AppleWebKit/605.1.15 (KHTML, like Gecko) Version/14.0.2 Safari/605.1.15",Macintosh,Safari,14.0.2,"OS X",10_15_6
9,1,null,"""",null,html-keyboard-response,9,130898,0.0-9.0,299,0,0,"FaceTime HD-Kamera (integriert)",29.969999313354492,480,640,"""","""","""","""","""","""","""","""","""","""","""","""","""","""","""","2021-01-17 11:01:37",,"Mozilla/5.0 (Macintosh; Intel Mac OS X 10_15_6) AppleWebKit/605.1.15 (KHTML, like Gecko) Version/14.0.2 Safari/605.1.15",Macintosh,Safari,14.0.2,"OS X",10_15_6
9,1,"""","""","""",fullscreen,10,138933,0.0-10.0,299,0,0,"FaceTime HD-Kamera (integriert)",29.969999313354492,480,640,"""",1920,895,"""","""",true,"""","""","""","""","""","""","""","""","""","2021-01-17 11:01:37",,"Mozilla/5.0 (Macintosh; Intel Mac OS X 10_15_6) AppleWebKit/605.1.15 (KHTML, like Gecko) Version/14.0.2 Safari/605.1.15",Macintosh,Safari,14.0.2,"OS X",10_15_6
9,1,null,"""",null,html-keyboard-response,11,139037,0.0-11.0,299,0,0,"FaceTime HD-Kamera (integriert)",29.969999313354492,480,640,"""","""","""","""","""","""","""","""","""","""","""","""","""","""","""","2021-01-17 11:01:37",,"Mozilla/5.0 (Macintosh; Intel Mac OS X 10_15_6) AppleWebKit/605.1.15 (KHTML, like Gecko) Version/14.0.2 Safari/605.1.15",Macintosh,Safari,14.0.2,"OS X",10_15_6
9,1,3409.999999999971,"<div style=""width: 45%; margin: auto; text-align: justify;""><p>For the next task, please do <strong>not</strong> rest your head on your arm but keep your head in a natural position. Get sure that you stay in the green rectangle in the video stream while doing that. </p><p>However, in order to make this measurement as accurate as possible, please keep your head at the same position at all time so that you <strong>only move your eyes</strong> when you look at the screen. </p></div><p style=""text-align: center;"">Press Space to continue </p>",32,html-keyboard-response,12,142448,0.0-12.0,299,0,0,"FaceTime HD-Kamera (integriert)",29.969999313354492,480,640,"""","""","""","""","""","""","""","""","""","""","""","""","""","""","""","2021-01-17 11:01:37",,"Mozilla/5.0 (Macintosh; Intel Mac OS X 10_15_6) AppleWebKit/605.1.15 (KHTML, like Gecko) Version/14.0.2 Safari/605.1.15",Macintosh,Safari,14.0.2,"OS X",10_15_6
9,1,20429,"<p><strong>Can you stay in that pose for a while?</strong></p><p>If not, then please adjust now in order to be comfortable.</p><br><p>Press Space to continue</p>",32,html-keyboard-response,13,162879,0.0-13.0,299,0,0,"FaceTime HD-Kamera (integriert)",29.969999313354492,480,640,"""","""","""","""","""","""","""","""","""","""","""","""","""","""","""","2021-01-17 11:01:37",,"Mozilla/5.0 (Macintosh; Intel Mac OS X 10_15_6) AppleWebKit/605.1.15 (KHTML, like Gecko) Version/14.0.2 Safari/605.1.15",Macintosh,Safari,14.0.2,"OS X",10_15_6
9,1,31001,"<div style=""position: fixed; top: 30%; left: 27.5%; width: 45%; margin: auto; text-align: justify;""><p>For calibration purposes, there will be buttons (39 in total) appearing one after another. <strong>Click 14x on each button</strong> until it turns green. Then the next button will appear. This will take around <strong>3 minutes. </strong></p><p>For an accurate measurement, please <strong><u>always</u></strong> follow the mouse cursor with your eyes. </p><br><p style=""text-align: center;"">Press Space to continue</p></div>",32,html-keyboard-response,14,193883,0.0-14.0,299,0,0,"FaceTime HD-Kamera (integriert)",29.969999313354492,480,640,"""","""","""","""","""","""","""","""","""","""","""","""","""","""","""","2021-01-17 11:01:37",,"Mozilla/5.0 (Macintosh; Intel Mac OS X 10_15_6) AppleWebKit/605.1.15 (KHTML, like Gecko) Version/14.0.2 Safari/605.1.15",Macintosh,Safari,14.0.2,"OS X",10_15_6
9,1,null,"""",null,html-keyboard-response,15,193986,0.0-15.0-0.0,299,0,0,"FaceTime HD-Kamera (integriert)",29.969999313354492,480,640,"""","""","""","""","""","""","""","""","""","""","""","""","""","""","""","2021-01-17 11:01:37",,"Mozilla/5.0 (Macintosh; Intel Mac OS X 10_15_6) AppleWebKit/605.1.15 (KHTML, like Gecko) Version/14.0.2 Safari/605.1.15",Macintosh,Safari,14.0.2,"OS X",10_15_6
9,1,null,"""",null,html-keyboard-response,16,194090,0.0-15.0-1.0,299,0,0,"FaceTime HD-Kamera (integriert)",29.969999313354492,480,640,"""","""","""","""","""","""","""","""","""","""","""","""","""","""","""","2021-01-17 11:01:37",,"Mozilla/5.0 (Macintosh; Intel Mac OS X 10_15_6) AppleWebKit/605.1.15 (KHTML, like Gecko) Version/14.0.2 Safari/605.1.15",Macintosh,Safari,14.0.2,"OS X",10_15_6
9,1,null,"""",null,html-keyboard-response,17,195592,0.0-15.0-2.0-0.0,299,0,0,"FaceTime HD-Kamera (integriert)",29.969999313354492,480,640,"""","""","""","""","""","""","""","""","""","""","""","""","""","""","""","2021-01-17 11:01:37",,"Mozilla/5.0 (Macintosh; Intel Mac OS X 10_15_6) AppleWebKit/605.1.15 (KHTML, like Gecko) Version/14.0.2 Safari/605.1.15",Macintosh,Safari,14.0.2,"OS X",10_15_6
9,1,"""","""","""",eyetracking-calibration,18,204699,0.0-15.0-2.0-1.0,299,0,0,"FaceTime HD-Kamera (integriert)",29.969999313354492,480,640,"""",1920,1080,"""",0,"""",0.2,0.8,0,"[{""x"":0.26039740837536757,""y"":0.4631549876646123,""t"":111704},{""x"":0.2601689934350674,""y"":0.4654325163447068,""t"":111753},{""x"":0.2592946470851132,""y"":0.4738230824935454,""t"":111802},{""x"":0.2572071049541899,""y"":0.49351855539687356,""t"":111854},{""x"":0.25338640805370377,""y"":0.5287434714494843,""t"":111914},{""x"":0.24771775995743797,""y"":0.5796195386579711,""t"":111969},{""x"":0.24084059596902987,""y"":0.6409451262852327,""t"":112021},{""x"":0.23359950820211076,""y"":0.7043363762735056,""t"":112073},{""x"":0.226953156719967,""y"":0.7621862461492575,""t"":112121},{""x"":0.22141872443957322,""y"":0.8098877586688,""t"":112170},{""x"":0.21714681543726472,""y"":0.8464770437931614,""t"":112226.00000000003},{""x"":0.21406048707457362,""y"":0.8727145059960904,""t"":112277},{""x"":0.21198800221850328,""y"":0.8901482636654426,""t"":112327.00000000003},{""x"":0.2107406996656182,""y"":0.9004481188908956,""t"":112381.00000000003},{""x"":0.21014567327674902,""y"":0.9051315459817033,""t"":112433},{""x"":0.21005420039599387,""y"":0.90549718362884,""t"":112476.00000000003},{""x"":0.21034062172292822,""y"":0.90263844783246,""t"":112536.00000000003},{""x"":0.21089898928621095,""y"":0.89747469572501,""t"":112588},{""x"":0.211640197523492,""y"":0.8907771897477804,""t"":112635},{""x"":0.2124901008734735,""y"":0.8831860208324664,""t"":112683},{""x"":0.21338830518680948,""y"":0.8752209905993728,""t"":112732.00000000003},{""x"":0.214287186684545,""y"":0.8672904523246581,""t"":112788},{""x"":0.2151508280004904,""y"":0.8597008427130872,""t"":112845.00000000003},{""x"":0.21595374878937487,""y"":0.8526679655358256,""t"":112895},{""x"":0.2166794516028744,""y"":0.8463298346849035,""t"":112938},{""x"":0.2173188770865729,""y"":0.8407602510816192,""t"":112982.00000000003},{""x"":0.21786887764694496,""y"":0.8359821644603332,""t"":113030.00000000003},{""x"":0.21833079932771443,""y"":0.8319800460933975,""t"":113078},{""x"":0.21870922933028136,""y"":0.8287107827235463,""t"":113133},{""x"":0.2190109353940866,""y"":0.8261128741184557,""t"":113181},{""x"":0.2192439995243878,""y"":0.8241139220209217,""t"":113227},{""x"":0.21941713351716055,""y"":0.8226365273089593,""t"":113272},{""x"":0.21953915594558213,""y"":0.8216027780326906,""t"":113318},{""x"":0.21961860750535014,""y"":0.8209375334189974,""t"":113363.00000000003},{""x"":0.21966348182913772,""y"":0.8205707057672431,""t"":113414},{""x"":0.21968105059517448,""y"":0.820438726253209,""t"":113457},{""x"":0.21967776405940212,""y"":0.8204853598877812,""t"":113503},{""x"":0.2196592105525445,""y"":0.8206620133715263,""t"":113553},{""x"":0.21963012079055041,""y"":0.8209276591366467,""t"":113598},{""x"":0.21959440497977986,""y"":0.821248480037812,""t"":113641},{""x"":0.21955521264803685,""y"":0.8215973219946718,""t"":113688},{""x"":0.21951500690665635,""y"":0.8219530263184747,""t"":113729},{""x"":0.2194756464534938,""y"":0.82229969940797,""t"":113771},{""x"":0.2194384700629083,""y"":0.8226259649574978,""t"":113816},{""x"":0.21940437957499284,""y"":0.8229242327899904,""t"":113860},{""x"":0.21937391849146962,""y"":0.8231900089106126,""t"":113904},{""x"":0.2193473442122394,""y"":0.82342126334565,""t"":113957},{""x"":0.2193246927113396,""y"":0.8236178657212287,""t"":114005},{""x"":0.2193058350649915,""y"":0.8237810932470623,""t"":114049},{""x"":0.21929052572171864,""y"":0.8239132116738626,""t"":114093},{""x"":0.21927844276142844,""y"":0.8240171267447576,""t"":114135},{""x"":0.21926922064391963,""y"":0.8240961015101383,""t"":114178},{""x"":0.21926247611442054,""y"":0.8241535334729713,""t"":114221},{""x"":0.2192578280304819,""y"":0.8241927847372442,""t"":114271},{""x"":0.21925491191551266,""y"":0.8242170580176562,""t"":114314},{""x"":0.21925339004248595,""y"":0.8242293114202366,""t"":114355},{""x"":0.21925295781815826,""y"":0.8242322052229868,""t"":114400},{""x"":0.21925334718310652,""y"":0.8242280743898691,""t"":114445},{""x"":0.21925432767391176,""y"":0.8242189211720239,""t"":114489},{""x"":0.2192557057172898,""y"":0.8242064228319297,""t"":114542.00000000003},{""x"":0.2192573226468971,""y"":0.824191950226242,""t"":114586},{""x"":0.21925905185572153,""y"":0.8241765936688182,""t"":114629},{""x"":0.21926079542315613,""y"":0.8241611931434928,""t"":114679},{""x"":0.21926248048792302,""y"":0.8241463705307509,""t"":114726.00000000003},{""x"":0.2192640555771162,""y"":0.824132562043974,""t"":114769},{""x"":0.21926548704833962,""y"":0.8241200495348588,""t"":114812},{""x"":0.21926675575634993,""y"":0.8241089897232433,""t"":114858},{""x"":0.21926785401755686,""y"":0.8240994407361028,""t"":114906},{""x"":0.21926878291473123,""y"":0.8240913856081484,""t"":114950},{""x"":0.2192695499597025,""y"":0.8240847526078496,""t"":115002},{""x"":0.21927016711298555,""y"":0.8240794324141648,""t"":115044},{""x"":0.21927064914540778,""y"":0.8240752922874602,""t"":115089.00000000003},{""x"":0.21927101231715973,""y"":0.8240721874596809,""t"":115133},{""x"":0.21927127334354515,""y"":0.8240699700201358,""t"":115174},{""x"":0.21927144861338382,""y"":0.8240684956001918,""t"":115218},{""x"":0.2192715536249188,""y"":0.8240676281680218,""t"":115269},{""x"":0.21927160260465806,""y"":0.8240672432380266,""t"":115313},{""x"":0.21927160827637845,""y"":0.8240672297826506,""t"":115356},{""x"":0.21927158175014547,""y"":0.8240674911104388,""t"":115404},{""x"":0.21927153250433623,""y"":0.8240679449460973,""t"":115448},{""x"":0.21927146843703654,""y"":0.8240685229182402,""t"":115493},{""x"":0.21927139596661804,""y"":0.824069169630149,""t"":115544},{""x"":0.21927132016463774,""y"":0.8240698414595116,""t"":115588},{""x"":0.21927124490733255,""y"":0.8240705052056423,""t"":115628},{""x"":0.21927117303483845,""y"":0.8240711366777181,""t"":115670},{""x"":0.21927110650980158,""y"":0.8240717192954204,""t"":115719},{""x"":0.2192710465692546,""y"":0.824072242754196,""t"":115763},{""x"":0.2192709938655012,""y"":0.8240727017911268,""t"":115811},{""x"":0.21927094859330223,""y"":0.8240730950739867,""t"":115859},{""x"":0.21927091060190784,""y"":0.8240734242252766,""t"":115907},{""x"":0.21927087949146143,""y"":0.8240736929845883,""t"":115953},{""x"":0.21927085469404511,""y"":0.8240739065062943,""t"":115997},{""x"":0.21927083554017415,""y"":0.8240740707849773,""t"":116039},{""x"":0.2192708213119136,""y"":0.8240741921979406,""t"":116089.00000000003},{""x"":0.21927081128401327,""y"":0.8240742771522864,""t"":116130},{""x"":0.219270804754566,""y"":0.8240743318231821,""t"":116173},{""x"":0.21927080106671737,""y"":0.8240743619698223,""t"":116217},{""x"":0.21927079962290727,""y"":0.8240743728160442,""t"":116261},{""x"":0.2192707998930343,""y"":0.8240743689834067,""t"":116303},{""x"":0.2192708014178098,""y"":0.8240743544656555,""t"":116353},{""x"":0.21927080380842726,""y"":0.8240743326347532,""t"":116403},{""x"":0.21927080674352498,""y"":0.8240743062699747,""t"":116447},{""x"":0.21927080996427054,""y"":0.8240742776028771,""t"":116492},{""x"":0.2192708132682538,""y"":0.8240742483722088,""t"":116534},{""x"":0.2192708165027416,""y"":0.8240742198839774,""t"":116577.00000000003},{""x"":0.21927081955772948,""y"":0.8240741930729492,""t"":116620},{""x"":0.21927082235911824,""y"":0.8240741685627637,""t"":116670},{""x"":0.2192708248622533,""y"":0.824074146722648,""t"":116720.00000000003},{""x"":0.21927082704598813,""y"":0.8240741277193689,""t"":116763},{""x"":0.21927082890736976,""y"":0.8240741115636132,""t"":116807},{""x"":0.2192708304569939,""y"":0.8240740981504138,""t"":116856},{""x"":0.21927083171503908,""y"":0.8240740872935798,""t"":116898},{""x"":0.21927083270795886,""y"":0.8240740787543345,""t"":116951},{""x"":0.21927083346579085,""y"":0.8240740722645417,""t"":116995},{""x"":0.21927083402002845,""y"":0.8240740675450169,""t"":117037},{""x"":0.21927083440199144,""y"":0.8240740643194845,""t"":117081},{""x"":0.21927083464163025,""y"":0.8240740623247653,""t"":117126},{""x"":0.21927083476669712,""y"":0.8240740613177802,""t"":117170},{""x"":0.21927083480222184,""y"":0.8240740610799232,""t"":117218},{""x"":0.21927083477023196,""y"":0.82407406141932,""t"":117272},{""x"":0.2192708346896657,""y"":0.8240740621714369,""t"":117316},{""x"":0.21927083457642993,""y"":0.8240740631984451,""t"":117359},{""x"":0.219270834443563,""y"":0.8240740643876947,""t"":117403},{""x"":0.21927083430146882,""y"":0.824074065649589,""t"":117446.00000000003},{""x"":0.2192708341581941,""y"":0.8240740669151018,""t"":117495},{""x"":0.21927083401972622,""y"":0.8240740681331299,""t"":117542.00000000003},{""x"":0.21927083389029509,""y"":0.8240740692678266,""t"":117588},{""x"":0.2192708337726653,""y"":0.8240740702960304,""t"":117634},{""x"":0.21927083366841016,""y"":0.8240740712048624,""t"":117677},{""x"":0.21927083357816118,""y"":0.8240740719895452,""t"":117722},{""x"":0.21927083350182944,""y"":0.8240740726514724,""t"":117771},{""x"":0.21927083343879766,""y"":0.824074073196538,""t"":117813},{""x"":0.2192708333880831,""y"":0.8240740736337252,""t"":117855},{""x"":0.21927083334847192,""y"":0.8240740739739414,""t"":117901},{""x"":0.2192708333186281,""y"":0.8240740742290825,""t"":117948},{""x"":0.21927083329717797,""y"":0.824074074411303,""t"":117996},{""x"":0.2192708332827749,""y"":0.8240740745324662,""t"":118045},{""x"":0.21927083327414526,""y"":0.82407407460375,""t"":118091},{""x"":0.21927083327012006,""y"":0.8240740746353842,""t"":118137.00000000003},{""x"":0.21927083326965371,""y"":0.8240740746364924,""t"":118182},{""x"":0.21927083327183325,""y"":0.8240740746150201,""t"":118227},{""x"":0.2192708332758798,""y"":0.8240740745777282,""t"":118271},{""x"":0.21927083328114433,""y"":0.8240740745302352,""t"":118315},{""x"":0.21927083328709943,""y"":0.824074074477093,""t"":118367}]","""","""","""","""","""","2021-01-17 11:01:37",,"Mozilla/5.0 (Macintosh; Intel Mac OS X 10_15_6) AppleWebKit/605.1.15 (KHTML, like Gecko) Version/14.0.2 Safari/605.1.15",Macintosh,Safari,14.0.2,"OS X",10_15_6
9,1,null,"""",null,html-keyboard-response,19,206206,0.0-15.0-2.0-0.1,299,0,0,"FaceTime HD-Kamera (integriert)",29.969999313354492,480,640,"""","""","""","""","""","""","""","""","""","""","""","""","""","""","""","2021-01-17 11:01:37",,"Mozilla/5.0 (Macintosh; Intel Mac OS X 10_15_6) AppleWebKit/605.1.15 (KHTML, like Gecko) Version/14.0.2 Safari/605.1.15",Macintosh,Safari,14.0.2,"OS X",10_15_6
9,1,"""","""","""",eyetracking-calibration,20,213766,0.0-15.0-2.0-1.1,299,0,0,"FaceTime HD-Kamera (integriert)",29.969999313354492,480,640,"""",1920,1080,"""",0,"""",0.8,0.2,0,"[{""x"":0.2192708332933283,""y"":0.8240740744218867,""t"":119918},{""x"":0.21927083329951244,""y"":0.8240740743673445,""t"":119977},{""x"":0.21927083330541844,""y"":0.8240740743154541,""t"":120023},{""x"":0.21927083331088507,""y"":0.8240740742675782,""t"":120067},{""x"":0.2192708333158106,""y"":0.8240740742245634,""t"":120112},{""x"":0.2192708333201415,""y"":0.8240740741868423,""t"":120157},{""x"":0.2192708333238617,""y"":0.8240740741545245,""t"":120205},{""x"":0.21927083332698363,""y"":0.8240740741274766,""t"":120253},{""x"":0.21927083332954014,""y"":0.8240740741053914,""t"":120296},{""x"":0.21927083333157787,""y"":0.8240740740878452,""t"":120340},{""x"":0.21927083333315184,""y"":0.8240740740743454,""t"":120382},{""x"":0.21927083333432107,""y"":0.8240740740643683,""t"":120427},{""x"":0.21927083333514513,""y"":0.8240740740573871,""t"":120470.00000000003},{""x"":0.2192708333356817,""y"":0.8240740740528945,""t"":120518.00000000003},{""x"":0.2192708333359848,""y"":0.824074074050417,""t"":120562},{""x"":0.21940714919806548,""y"":0.8243164133596803,""t"":120613.00000000003},{""x"":0.21952302727108555,""y"":0.8245224188231813,""t"":120659},{""x"":0.22111869852167185,""y"":0.8239664173723618,""t"":120710},{""x"":0.2224712113171295,""y"":0.8234868080818221,""t"":120758},{""x"":0.22618060355281705,""y"":0.821628569717891,""t"":120814},{""x"":0.22928520493857124,""y"":0.8200600251323603,""t"":120861},{""x"":0.2380907894363056,""y"":0.8136783948113924,""t"":120913},{""x"":0.24543528203065312,""y"":0.8083147943126899,""t"":120958.00000000003},{""x"":0.2608157974650155,""y"":0.7973721938634517,""t"":121010},{""x"":0.27353804167290346,""y"":0.788296786238348,""t"":121066},{""x"":0.29497143131088693,""y"":0.7732047076841227,""t"":121119.00000000003},{""x"":0.3217708023343524,""y"":0.7538215276383434,""t"":121172},{""x"":0.3513737924382988,""y"":0.7317013510503605,""t"":121224},{""x"":0.3820957587081063,""y"":0.7074830830081993,""t"":121276},{""x"":0.4066425468803354,""y"":0.6880223864904609,""t"":121320},{""x"":0.4316553932773054,""y"":0.6665445478206022,""t"":121373},{""x"":0.46020082039667043,""y"":0.6410512161060014,""t"":121432},{""x"":0.4908086928155893,""y"":0.6125249666453889,""t"":121484},{""x"":0.5221880531096023,""y"":0.582090449952476,""t"":121532},{""x"":0.5513229690055961,""y"":0.5526657059827335,""t"":121586},{""x"":0.5753903340126173,""y"":0.5257626431884858,""t"":121635},{""x"":0.5931431626891104,""y"":0.5052834383064481,""t"":121681},{""x"":0.6055305338857656,""y"":0.49035845529497796,""t"":121735},{""x"":0.6134657779462114,""y"":0.480125532987776,""t"":121781},{""x"":0.6173906871981862,""y"":0.47158114518186073,""t"":121829},{""x"":0.618546336058725,""y"":0.4664727762949108,""t"":121874},{""x"":0.6193838173143115,""y"":0.4619225367633327,""t"":121923.00000000003},{""x"":0.6184494556852969,""y"":0.45981546684556757,""t"":121978},{""x"":0.6162440211198553,""y"":0.4595956344557333,""t"":122024.00000000003},{""x"":0.6131875955786761,""y"":0.46077781227878,""t"":122070},{""x"":0.6093514102771576,""y"":0.46100948911737616,""t"":122117},{""x"":0.6053229365622655,""y"":0.46047901377295974,""t"":122168},{""x"":0.6013121629184025,""y"":0.4608463790712842,""t"":122212},{""x"":0.593656572642026,""y"":0.46452776889353553,""t"":122259},{""x"":0.5888971237375311,""y"":0.466309135026264,""t"":122313},{""x"":0.5806398728391964,""y"":0.47189738707730455,""t"":122359},{""x"":0.5734614393926635,""y"":0.4767477145716602,""t"":122410},{""x"":0.5628449072384246,""y"":0.4851864277547458,""t"":122459},{""x"":0.5488637831618901,""y"":0.4975331115104876,""t"":122507},{""x"":0.531350484000538,""y"":0.5137732718333438,""t"":122552},{""x"":0.509924793488284,""y"":0.5340943287197574,""t"":122605},{""x"":0.4924748819741816,""y"":0.5508648420897576,""t"":122652},{""x"":0.48233230795348475,""y"":0.5609566627625565,""t"":122703},{""x"":0.48140650682271474,""y"":0.5620536341872127,""t"":122758},{""x"":0.4817695677593117,""y"":0.5620187998626126,""t"":122807},{""x"":0.48306977217733504,""y"":0.5611497638928352,""t"":122861},{""x"":0.48501031350439805,""y"":0.559699301640022,""t"":122904},{""x"":0.48734668866512526,""y"":0.5578770742820987,""t"":122952.00000000003},{""x"":0.4898826993246461,""y"":0.5558526033807719,""t"":122995},{""x"":0.4924655852384308,""y"":0.5537590577899707,""t"":123042.00000000003},{""x"":0.49184544491525173,""y"":0.5548479012382578,""t"":123092},{""x"":0.49154566471272554,""y"":0.5555697198230902,""t"":123142},{""x"":0.49149427917689803,""y"":0.5559919656419688,""t"":123192},{""x"":0.491628313428185,""y"":0.5561763098373862,""t"":123234},{""x"":0.491893925989576,""y"":0.5561777113976683,""t"":123277},{""x"":0.4922461522464597,""y"":0.5560439957017775,""t"":123320},{""x"":0.4986462611571929,""y"":0.5497573433443697,""t"":123368},{""x"":0.5041680688275659,""y"":0.5443183474436525,""t"":123427},{""x"":0.5088226027248741,""y"":0.5397207189830704,""t"":123472},{""x"":0.512652377017723,""y"":0.5359264688191022,""t"":123517},{""x"":0.5184477839377384,""y"":0.5304523169749182,""t"":123565},{""x"":0.5231512037450625,""y"":0.5260113151421177,""t"":123610},{""x"":0.526862026526405,""y"":0.5225090719818509,""t"":123654},{""x"":0.5296929692028968,""y"":0.5198386948053957,""t"":123697},{""x"":0.5261731698662172,""y"":0.5232197628365678,""t"":123749},{""x"":0.5163037406761728,""y"":0.5329534906495615,""t"":123793},{""x"":0.5076900353715138,""y"":0.541439109780259,""t"":123837},{""x"":0.5003447869565268,""y"":0.5486669705960574,""t"":123882},{""x"":0.49763501934711574,""y"":0.5512870477403562,""t"":123930},{""x"":0.4955630629295328,""y"":0.5532804638632913,""t"":123983},{""x"":0.4940441040153761,""y"":0.5547322271660785,""t"":124028},{""x"":0.49299360981204754,""y"":0.5557265644182724,""t"":124071.00000000003},{""x"":0.48524218039245565,""y"":0.5631292879825363,""t"":124115},{""x"":0.47886586635083644,""y"":0.5692117877163714,""t"":124158},{""x"":0.4737574776844403,""y"":0.5740785318693,""t"":124203},{""x"":0.46978762684223113,""y"":0.5778548309352753,""t"":124247},{""x"":0.4704961947330832,""y"":0.5772836658812034,""t"":124299},{""x"":0.4638737586397281,""y"":0.5839170247694302,""t"":124346},{""x"":0.44944606056124525,""y"":0.5979557092087279,""t"":124389},{""x"":0.43757788800695585,""y"":0.6095020441384361,""t"":124434},{""x"":0.42806971972549296,""y"":0.6187507245418958,""t"":124478},{""x"":0.42068071980788296,""y"":0.6259365520987689,""t"":124520},{""x"":0.41514909593703236,""y"":0.6313146322471164,""t"":124572},{""x"":0.4112079599153803,""y"":0.6351449494942142,""t"":124616},{""x"":0.4085972390391971,""y"":0.6376807864032025,""t"":124658},{""x"":0.40707219983091975,""y"":0.639160439257153,""t"":124704},{""x"":0.41118018811047324,""y"":0.6351972490151091,""t"":124752},{""x"":0.41523550463567127,""y"":0.6312800210411432,""t"":124797},{""x"":0.41909120961051616,""y"":0.627551978282766,""t"":124848},{""x"":0.4226467325260709,""y"":0.624111360427573,""t"":124893.00000000003},{""x"":0.42583972202780485,""y"":0.6210193036539613,""t"":124937},{""x"":0.4286385141388345,""y"":0.6183071285754071,""t"":124982.00000000003},{""x"":0.4310353555077793,""y"":0.6159829024247644,""t"":125026},{""x"":0.43304045265605334,""y"":0.6140372053484568,""t"":125070},{""x"":0.4390389744691625,""y"":0.6083283123064298,""t"":125126},{""x"":0.44404644177211966,""y"":0.6035633247486532,""t"":125172},{""x"":0.44812377752793486,""y"":0.5996840495983311,""t"":125216},{""x"":0.4513528236878053,""y"":0.5966124207820594,""t"":125259},{""x"":0.45382762247570374,""y"":0.5942587945312479,""t"":125303},{""x"":0.45564749605494004,""y"":0.5925285324454359,""t"":125348},{""x"":0.45691172816788733,""y"":0.591327059547295,""t"":125406},{""x"":0.45771563925403586,""y"":0.5905635959971605,""t"":125449},{""x"":0.4621010058889713,""y"":0.5860339934328649,""t"":125500.00000000003},{""x"":0.4656021273294054,""y"":0.5823993844596536,""t"":125553},{""x"":0.4683116731021134,""y"":0.5795695769562319,""t"":125598},{""x"":0.4703294313861841,""y"":0.5774460875648729,""t"":125642},{""x"":0.47175649094319605,""y"":0.5759282149432103,""t"":125689},{""x"":0.47269089424386723,""y"":0.5749176113913166,""t"":125738.00000000003},{""x"":0.47322454902087496,""y"":0.574321564680526,""t"":125784},{""x"":0.47344119128963497,""y"":0.5740551975887734,""t"":125827.00000000003},{""x"":0.4770957336451472,""y"":0.5706500308903768,""t"":125879},{""x"":0.4800203596351096,""y"":0.5679415152599101,""t"":125925},{""x"":0.48229019523928074,""y"":0.5658546659693896,""t"":125970.00000000003},{""x"":0.48398665545435815,""y"":0.5643094851182697,""t"":126015},{""x"":0.48519257155067336,""y"":0.5632254442903909,""t"":126059},{""x"":0.4859885375231862,""y"":0.5625248150070761,""t"":126104},{""x"":0.4864503014434105,""y"":0.562135016541912,""t"":126153},{""x"":0.4866470316232639,""y"":0.5619901452281223,""t"":126198},{""x"":0.4866402973469868,""y"":0.5620318388721454,""t"":126245},{""x"":0.48648361754667246,""y"":0.5622096160341921,""t"":126288},{""x"":0.48963034321204807,""y"":0.5590880638280284,""t"":126337},{""x"":0.49219933220371037,""y"":0.5565334072485957,""t"":126390},{""x"":0.4942399761014348,""y"":0.5544985240647872,""t"":126434},{""x"":0.4958096794369181,""y"":0.5529280248692843,""t"":126479},{""x"":0.4969694873639263,""y"":0.5517626120796958,""t"":126522},{""x"":0.4977807133931371,""y"":0.550942452967475,""t"":126567},{""x"":0.4983024391021299,""y"":0.55040969108552,""t"":126610},{""x"":0.49858975669618705,""y"":0.5501102220622657,""t"":126655.00000000003},{""x"":0.5018278944743557,""y"":0.5468444448845138,""t"":126710},{""x"":0.5044557153185667,""y"":0.5441914983370757,""t"":126754},{""x"":0.5065288062268897,""y"":0.5420961333344088,""t"":126799},{""x"":0.5081101913615762,""y"":0.5404954621676035,""t"":126844},{""x"":0.5092658876938493,""y"":0.5393234501787019,""t"":126887.00000000003},{""x"":0.5100615052392699,""y"":0.5385143565688497,""t"":126930},{""x"":0.5105597532304267,""y"":0.5380052630093358,""t"":126980},{""x"":0.5108187139576728,""y"":0.5377378285845542,""t"":127027},{""x"":0.5108907517721814,""y"":0.5376594040021914,""t"":127071.00000000003},{""x"":0.510821934252297,""y"":0.5377236286075845,""t"":127117},{""x"":0.5135144875287622,""y"":0.5349825501825997,""t"":127164},{""x"":0.5157098287739249,""y"":0.5327467308397592,""t"":127209},{""x"":0.5174510830141917,""y"":0.53097254370527,""t"":127253},{""x"":0.5187880852610273,""y"":0.5296094842260577,""t"":127304},{""x"":0.5197736492067137,""y"":0.5286039719001339,""t"":127348},{""x"":0.5204606944463291,""y"":0.5279022789034152,""t"":127391},{""x"":0.5209001213844622,""y"":0.5274526980562807,""t"":127436}]","""","""","""","""","""","2021-01-17 11:01:37",,"Mozilla/5.0 (Macintosh; Intel Mac OS X 10_15_6) AppleWebKit/605.1.15 (KHTML, like Gecko) Version/14.0.2 Safari/605.1.15",Macintosh,Safari,14.0.2,"OS X",10_15_6
9,1,null,"""",null,html-keyboard-response,21,215270,0.0-15.0-2.0-0.2,299,0,0,"FaceTime HD-Kamera (integriert)",29.969999313354492,480,640,"""","""","""","""","""","""","""","""","""","""","""","""","""","""","""","2021-01-17 11:01:37",,"Mozilla/5.0 (Macintosh; Intel Mac OS X 10_15_6) AppleWebKit/605.1.15 (KHTML, like Gecko) Version/14.0.2 Safari/605.1.15",Macintosh,Safari,14.0.2,"OS X",10_15_6
9,1,"""","""","""",eyetracking-calibration,22,221929,0.0-15.0-2.0-1.2,299,0,0,"FaceTime HD-Kamera (integriert)",29.969999313354492,480,640,"""",1920,1080,"""",0,"""",0.5,0.2,0,"[{""x"":0.5211393223621461,""y"":0.5272070632912126,""t"":128982.00000000003},{""x"":0.5212212214972348,""y"":0.52712173182804,""t"":129036.00000000003},{""x"":0.5211837429141746,""y"":0.5271581300153431,""t"":129085},{""x"":0.521059616318119,""y"":0.5272829554046569,""t"":129128},{""x"":0.5208764393271769,""y"":0.5274681170215886,""t"":129173.00000000003},{""x"":0.520656926891969,""y"":0.5276904847218901,""t"":129217},{""x"":0.5204192889514861,""y"":0.5279315075338392,""t"":129261},{""x"":0.5201776877946859,""y"":0.5281767504030116,""t"":129305},{""x"":0.5199427361399992,""y"":0.5284153890560069,""t"":129356},{""x"":0.5197220055352825,""y"":0.5286396939647031,""t"":129402},{""x"":0.5195205222275353,""y"":0.5288445267158921,""t"":129445},{""x"":0.5193412341289501,""y"":0.5290268654999923,""t"":129489},{""x"":0.5191854379367621,""y"":0.5291853709040295,""t"":129533},{""x"":0.5190531599075563,""y"":0.5293199986692306,""t"":129577.00000000003},{""x"":0.5189434873245616,""y"":0.5294316624690258,""t"":129628},{""x"":0.5240348531803111,""y"":0.524432821467748,""t"":129684},{""x"":0.5313675750780831,""y"":0.5158155216384683,""t"":129736},{""x"":0.5388827519066742,""y"":0.5046924654072562,""t"":129787},{""x"":0.545078044051381,""y"":0.49545058807316644,""t"":129834},{""x"":0.5510075717016334,""y"":0.4845710706765898,""t"":129887.00000000003},{""x"":0.55569617118709,""y"":0.47579270356163983,""t"":129933},{""x"":0.5598280652334472,""y"":0.46576306433022335,""t"":129992},{""x"":0.5626498720840835,""y"":0.45497242360179196,""t"":130045},{""x"":0.5642150383294772,""y"":0.44384959362664844,""t"":130100},{""x"":0.5644558687475649,""y"":0.4327610183424461,""t"":130156},{""x"":0.5637425364311357,""y"":0.4220125734461158,""t"":130212},{""x"":0.5628157368605158,""y"":0.4137920103370202,""t"":130257},{""x"":0.5613591245597621,""y"":0.4058248086561314,""t"":130310},{""x"":0.5599161164483967,""y"":0.40000555796456155,""t"":130354},{""x"":0.5551324465072722,""y"":0.3960027185018074,""t"":130405.00000000003},{""x"":0.5509638852792001,""y"":0.393499532947016,""t"":130453},{""x"":0.5450972865314886,""y"":0.3919603722764747,""t"":130505},{""x"":0.540176034221467,""y"":0.3913995694729226,""t"":130552},{""x"":0.5361477514172305,""y"":0.3915832888397754,""t"":130604},{""x"":0.5315752197092442,""y"":0.392309387832504,""t"":130660},{""x"":0.5278025273044221,""y"":0.3924377764483755,""t"":130712},{""x"":0.5236586899563745,""y"":0.39270003094985495,""t"":130760},{""x"":0.5196282465815968,""y"":0.3932563629474276,""t"":130811},{""x"":0.516535299815953,""y"":0.39400775533350996,""t"":130856},{""x"":0.5138481179524825,""y"":0.39487337551925716,""t"":130906},{""x"":0.5119140239689873,""y"":0.39578901972341707,""t"":130959},{""x"":0.5106125692813492,""y"":0.39573594813758206,""t"":131013},{""x"":0.5096934404708785,""y"":0.39579237012408597,""t"":131061},{""x"":0.5092086743486454,""y"":0.3959273921315093,""t"":131114},{""x"":0.5090637995666596,""y"":0.39611509109357895,""t"":131168},{""x"":0.5091755994283127,""y"":0.39633424093716646,""t"":131212},{""x"":0.5094724643967959,""y"":0.3965679245132587,""t"":131270},{""x"":0.5098941923132331,""y"":0.3958337190785593,""t"":131326},{""x"":0.5103913887915129,""y"":0.39523661315585734,""t"":131375.00000000003},{""x"":0.5109245961984595,""y"":0.3947643894262531,""t"":131430},{""x"":0.511463256777088,""y"":0.394403078678805,""t"":131475},{""x"":0.5119845944168855,""y"":0.3941379719723005,""t"":131520},{""x"":0.5124724806824262,""y"":0.3939543972054323,""t"":131573},{""x"":0.5129163341633057,""y"":0.39311127304746524,""t"":131632},{""x"":0.5133100880466668,""y"":0.3924315623356775,""t"":131685},{""x"":0.5136512489751186,""y"":0.3918994345949993,""t"":131737},{""x"":0.5139400605987716,""y"":0.39149735341118674,""t"":131783},{""x"":0.5141787775713197,""y"":0.39120721794538427,""t"":131836},{""x"":0.5143710498579408,""y"":0.39101122805411065,""t"":131890},{""x"":0.5145214128853732,""y"":0.3908925110669223,""t"":131938},{""x"":0.5146348760394835,""y"":0.3908355477610064,""t"":131989},{""x"":0.5147166000793644,""y"":0.38985707596480235,""t"":132037},{""x"":0.5147716529812837,""y"":0.38905962626249585,""t"":132092},{""x"":0.5148048333620168,""y"":0.38842742590932167,""t"":132145},{""x"":0.5148205507925568,""y"":0.3879422809357554,""t"":132195},{""x"":0.5148227528560433,""y"":0.3875849309322913,""t"":132251},{""x"":0.5148148896066426,""y"":0.38733609151768894,""t"":132299},{""x"":0.5147999070491709,""y"":0.3871772249157789,""t"":132346},{""x"":0.5146439464404267,""y"":0.38636406133108114,""t"":132395},{""x"":0.5145057602347999,""y"":0.3857170014716734,""t"":132444},{""x"":0.5143861731696803,""y"":0.38521821668576467,""t"":132501},{""x"":0.5142850569824151,""y"":0.38484866792783,""t"":132552},{""x"":0.5142015849190982,""y"":0.38458917712998814,""t"":132605},{""x"":0.5141344473151563,""y"":0.38442122367705406,""t"":132653},{""x"":0.5140820298921148,""y"":0.3843275063660109,""t"":132704},{""x"":0.5140425574622209,""y"":0.3835652920260853,""t"":132756.00000000003},{""x"":0.5140142063991258,""y"":0.3829566786087502,""t"":132807},{""x"":0.5139951895917911,""y"":0.38248558601886046,""t"":132871},{""x"":0.5139838177164913,""y"":0.3821346923497641,""t"":132923.00000000003},{""x"":0.513978540596682,""y"":0.3818864454217417,""t"":132968},{""x"":0.5139779722230415,""y"":0.38172381870054733,""t"":133018.00000000003},{""x"":0.5139809027186243,""y"":0.3816308485390282,""t"":133068},{""x"":0.5139863001917181,""y"":0.3808659707522631,""t"":133126},{""x"":0.5139933050496254,""y"":0.38025228149608403,""t"":133174},{""x"":0.5140012189719088,""y"":0.37977453323416044,""t"":133221},{""x"":0.5140094903778841,""y"":0.3794160813299169,""t"":133269},{""x"":0.514017697881883,""y"":0.37915990938572725,""t"":133320},{""x"":0.5140255329186573,""y"":0.3789894009578155,""t"":133364},{""x"":0.514032782444735,""y"":0.37888889344148,""t"":133417.00000000003},{""x"":0.5140393123814512,""y"":0.3783593705658455,""t"":133474},{""x"":0.5140450522617416,""y"":0.37794538742091793,""t"":133522},{""x"":0.5140499813741436,""y"":0.3776331117014662,""t"":133573},{""x"":0.5140541165613016,""y"":0.37740830038630263,""t"":133618},{""x"":0.5140575017235346,""y"":0.3772569717307827,""t"":133666},{""x"":0.5140601989972147,""y"":0.3771658910258502,""t"":133714.00000000003},{""x"":0.5140622815192429,""y"":0.37712289961363915,""t"":133773},{""x"":0.5140638276492665,""y"":0.37639009721311456,""t"":133825},{""x"":0.5140649164971003,""y"":0.3757939945119446,""t"":133873},{""x"":0.5140656245910085,""y"":0.3753224390718421,""t"":133923.00000000003},{""x"":0.5140660235203011,""y"":0.37496152285595125,""t"":133975},{""x"":0.5140661783906711,""y"":0.3746965929361866,""t"":134019},{""x"":0.5140661469407786,""y"":0.3745130271941863,""t"":134069},{""x"":0.5140659791820269,""y"":0.3743968057797146,""t"":134124},{""x"":0.5140657174388755,""y"":0.3750619270639023,""t"":134175},{""x"":0.513929080821299,""y"":0.3742065706509221,""t"":134226.00000000003},{""x"":0.5138128511378903,""y"":0.37349643745549616,""t"":134278},{""x"":0.5138526097765725,""y"":0.37437569946953986,""t"":134332},{""x"":0.5138902811601137,""y"":0.3751596707854062,""t"":134377},{""x"":0.5139249185389119,""y"":0.3770539167166584,""t"":134422},{""x"":0.5139559432002611,""y"":0.37745286807794315,""t"":134471},{""x"":0.5139830710796265,""y"":0.3770332626117425,""t"":134521},{""x"":0.5140062469018248,""y"":0.3766428941843345,""t"":134575},{""x"":0.514025586491534,""y"":0.37628958226001286,""t"":134620},{""x"":0.5140413274014236,""y"":0.37597763107262433,""t"":134683},{""x"":0.5139174717757727,""y"":0.37449688251280727,""t"":134730},{""x"":0.5139474539267875,""y"":0.3744518344735401,""t"":134777},{""x"":0.5138378327439175,""y"":0.3732286057303461,""t"":134829},{""x"":0.5137451642994352,""y"":0.3726969257636753,""t"":134883},{""x"":0.5136686843651647,""y"":0.3722855864641005,""t"":134930},{""x"":0.5136071871283334,""y"":0.3719793942101359,""t"":134989},{""x"":0.513559188556227,""y"":0.3717629646334804,""t"":135041},{""x"":0.5135230580307519,""y"":0.37040968572429894,""t"":135093},{""x"":0.5134971213404087,""y"":0.3692989451406023,""t"":135139},{""x"":0.5134797384442868,""y"":0.369622983000079,""t"":135190},{""x"":0.5134693595288754,""y"":0.3699652278861106,""t"":135239},{""x"":0.5134645628173172,""y"":0.3698226716395719,""t"":135300},{""x"":0.5134640774084716,""y"":0.3685274366658951,""t"":135349},{""x"":0.513466794158695,""y"":0.36746075312442167,""t"":135400},{""x"":0.5134717673045961,""y"":0.3666050791981416,""t"":135444},{""x"":0.5134782091857814,""y"":0.3659391012300717,""t"":135491},{""x"":0.5134854800826619,""y"":0.3666512621939025,""t"":135539},{""x"":0.5134930748506003,""y"":0.3673244321501588,""t"":135583.00000000003}]","""","""","""","""","""","2021-01-17 11:01:37",,"Mozilla/5.0 (Macintosh; Intel Mac OS X 10_15_6) AppleWebKit/605.1.15 (KHTML, like Gecko) Version/14.0.2 Safari/605.1.15",Macintosh,Safari,14.0.2,"OS X",10_15_6
9,1,null,"""",null,html-keyboard-response,23,223433,0.0-15.0-2.0-0.3,299,0,0,"FaceTime HD-Kamera (integriert)",29.969999313354492,480,640,"""","""","""","""","""","""","""","""","""","""","""","""","""","""","""","2021-01-17 11:01:37",,"Mozilla/5.0 (Macintosh; Intel Mac OS X 10_15_6) AppleWebKit/605.1.15 (KHTML, like Gecko) Version/14.0.2 Safari/605.1.15",Macintosh,Safari,14.0.2,"OS X",10_15_6
9,1,"""","""","""",eyetracking-calibration,24,229528,0.0-15.0-2.0-1.3,299,0,0,"FaceTime HD-Kamera (integriert)",29.969999313354492,480,640,"""",1920,1080,"""",0,"""",0.65,0.35,0,"[{""x"":0.5140458711664583,""y"":0.3834518520114614,""t"":137144},{""x"":0.5145165720754907,""y"":0.39718847500741894,""t"":137196.00000000003},{""x"":0.5149080087090823,""y"":0.4086156088658089,""t"":137243},{""x"":0.5152254127177527,""y"":0.4178848134993163,""t"":137289},{""x"":0.5154755806444622,""y"":0.42519350733779665,""t"":137333.00000000003},{""x"":0.5156661949817515,""y"":0.4307651406064865,""t"":137378},{""x"":0.5158052878131246,""y"":0.4348335260570781,""t"":137423.00000000003},{""x"":0.5159008309782451,""y"":0.4376308600603652,""t"":137475},{""x"":0.5159604358904003,""y"":0.4393789429582787,""t"":137519},{""x"":0.5159911462045481,""y"":0.44028310931050585,""t"":137565},{""x"":0.5159993072517293,""y"":0.4405283993486654,""t"":137609},{""x"":0.5159904973227982,""y"":0.4402775367924563,""t"":137653},{""x"":0.515969507337316,""y"":0.4396703204007893,""t"":137708.00000000003},{""x"":0.5158040411777567,""y"":0.43664302956947176,""t"":137759},{""x"":0.5170173022053162,""y"":0.4323457840056738,""t"":137810},{""x"":0.5180436201344488,""y"":0.42851512940164027,""t"":137856},{""x"":0.5209359845304424,""y"":0.42421141062362006,""t"":137908},{""x"":0.5254010026479764,""y"":0.4198245609404937,""t"":137957},{""x"":0.5308871092774644,""y"":0.41544011066394876,""t"":138010},{""x"":0.537041660579532,""y"":0.41112110946411345,""t"":138074},{""x"":0.5432845422562308,""y"":0.4073961899049327,""t"":138125.00000000003},{""x"":0.5495309910755851,""y"":0.40397845901847035,""t"":138179.00000000003},{""x"":0.5544914444507084,""y"":0.4013342569033232,""t"":138230},{""x"":0.5593964094003245,""y"":0.3991235896387289,""t"":138281},{""x"":0.563140620654689,""y"":0.397526247474357,""t"":138333.00000000003},{""x"":0.5666973780618194,""y"":0.39596033625247373,""t"":138387.00000000003},{""x"":0.5707802106116997,""y"":0.3961026720775579,""t"":138438},{""x"":0.5740898373417781,""y"":0.3969569896278605,""t"":138493},{""x"":0.576193476586443,""y"":0.3983764799802074,""t"":138556},{""x"":0.5771457926067568,""y"":0.3999880190433999,""t"":138609},{""x"":0.5775573943939982,""y"":0.40147183019979527,""t"":138657},{""x"":0.5771445404637114,""y"":0.40304487426820546,""t"":138711},{""x"":0.5768953436458705,""y"":0.40417347061725906,""t"":138761},{""x"":0.5764298263978204,""y"":0.40513485488113476,""t"":138807},{""x"":0.5758230554619602,""y"":0.4059346880999494,""t"":138852},{""x"":0.5751360489715206,""y"":0.406583552463368,""t"":138908},{""x"":0.5744170349961006,""y"":0.4070952439089731,""t"":138955},{""x"":0.5737028876043772,""y"":0.40748538422152497,""t"":139001},{""x"":0.5717937943095487,""y"":0.40825500263860753,""t"":139049},{""x"":0.5695739660794722,""y"":0.4091053328230096,""t"":139099},{""x"":0.5665848767561695,""y"":0.4102605857853325,""t"":139144},{""x"":0.5640717179929401,""y"":0.41118388502788367,""t"":139203},{""x"":0.5609190039339371,""y"":0.4123840242429023,""t"":139253},{""x"":0.5583444637745195,""y"":0.4133296979575845,""t"":139300},{""x"":0.5562988115121731,""y"":0.4140500263992579,""t"":139344},{""x"":0.554043119737235,""y"":0.414817778737851,""t"":139396},{""x"":0.5512096025671583,""y"":0.415869151128968,""t"":139448},{""x"":0.5476240234184334,""y"":0.4171616383070293,""t"":139502},{""x"":0.5434189017788102,""y"":0.4188966429056331,""t"":139550},{""x"":0.5387166277648421,""y"":0.4207573355925549,""t"":139599},{""x"":0.5349904211474155,""y"":0.42222579145864125,""t"":139649.00000000003},{""x"":0.5313146057864163,""y"":0.42358880888319494,""t"":139700},{""x"":0.5285157187335011,""y"":0.4246143212274478,""t"":139748},{""x"":0.5279746481327797,""y"":0.42486533948866567,""t"":139800},{""x"":0.5278494991092935,""y"":0.4249459042938028,""t"":139856},{""x"":0.5293995326656717,""y"":0.42441275615600793,""t"":139903},{""x"":0.5309681409063904,""y"":0.42385893409002623,""t"":139951},{""x"":0.5331698726070538,""y"":0.4228271201597736,""t"":140001},{""x"":0.5351733931061167,""y"":0.42189459533093737,""t"":140050},{""x"":0.5369511734830367,""y"":0.42107233201184874,""t"":140110},{""x"":0.5384918366795225,""y"":0.4203640608189458,""t"":140156},{""x"":0.5397963810397194,""y"":0.4197680180888262,""t"":140202.00000000003},{""x"":0.5408749017723747,""y"":0.41927845377635137,""t"":140257},{""x"":0.542425389264558,""y"":0.4186445633790476,""t"":140308},{""x"":0.543684498753371,""y"":0.41813488584349773,""t"":140352},{""x"":0.5446785889652374,""y"":0.4177371115566626,""t"":140400},{""x"":0.5454376234267211,""y"":0.4174377175670709,""t"":140447},{""x"":0.5459930394409227,""y"":0.4172228211061484,""t"":140492},{""x"":0.5463761163985709,""y"":0.417078823981158,""t"":140538},{""x"":0.547298356713658,""y"":0.41675053772463827,""t"":140594},{""x"":0.5480037279755094,""y"":0.4165048485833567,""t"":140642},{""x"":0.5485210343946444,""y"":0.41632987616715045,""t"":140688},{""x"":0.5488789949792455,""y"":0.4162140467643717,""t"":140733},{""x"":0.5477419689875147,""y"":0.41663115040016335,""t"":140781},{""x"":0.5467030334202982,""y"":0.41701388951893725,""t"":140826},{""x"":0.5450961125053342,""y"":0.4178407676477304,""t"":140882},{""x"":0.5437119182503726,""y"":0.4185514862809434,""t"":140931},{""x"":0.5425470173179541,""y"":0.4191482793398646,""t"":140977},{""x"":0.5415901836580352,""y"":0.4196373113106399,""t"":141020},{""x"":0.5408248829919147,""y"":0.4200274041928248,""t"":141066},{""x"":0.5402313174233593,""y"":0.4203289923132767,""t"":141119.00000000003},{""x"":0.5397880642686899,""y"":0.4205532867911254,""t"":141167.00000000003},{""x"":0.5394733503572908,""y"":0.42071162789755956,""t"":141211},{""x"":0.5399475860147123,""y"":0.42033032318116503,""t"":141262.00000000003},{""x"":0.5404071190528057,""y"":0.4199770082831122,""t"":141309},{""x"":0.540837584746653,""y"":0.4196583605463629,""t"":141353},{""x"":0.541229530033286,""y"":0.4193779357041879,""t"":141400},{""x"":0.5415775026554567,""y"":0.41913684396272677,""t"":141451},{""x"":0.5418792201356326,""y"":0.4189343460590537,""t"":141496},{""x"":0.5428164099326092,""y"":0.4185260273053994,""t"":141546},{""x"":0.543607240536592,""y"":0.41818758131711176,""t"":141594},{""x"":0.5442586748305753,""y"":0.41791413425863555,""t"":141639},{""x"":0.5447813780561508,""y"":0.41769951178706005,""t"":141682},{""x"":0.5464151688677524,""y"":0.41705214551828707,""t"":141744.00000000003},{""x"":0.5488539588185049,""y"":0.41603755826991085,""t"":141794},{""x"":0.5508650128175309,""y"":0.4152033565872129,""t"":141839.00000000003},{""x"":0.5530258395142008,""y"":0.41453539092225483,""t"":141897},{""x"":0.5547489046693541,""y"":0.414016626563901,""t"":141943},{""x"":0.5560804913814189,""y"":0.4136285739023773,""t"":141990},{""x"":0.5570702848018907,""y"":0.41335240201812423,""t"":142035},{""x"":0.5577685125438427,""y"":0.41316977434220387,""t"":142081},{""x"":0.5582238120216622,""y"":0.413063446009548,""t"":142126},{""x"":0.5584817189891452,""y"":0.41301766160128145,""t"":142174},{""x"":0.5591289380439064,""y"":0.41277605044560484,""t"":142232.00000000003},{""x"":0.5595752303467614,""y"":0.4126050832723518,""t"":142276},{""x"":0.5598554957282561,""y"":0.4124930466677419,""t"":142323},{""x"":0.5600020799970576,""y"":0.4124289573180979,""t"":142375.00000000003},{""x"":0.5600441614254144,""y"":0.41240280622778813,""t"":142423.00000000003},{""x"":0.5600074233473755,""y"":0.41240570040347885,""t"":142470.00000000003},{""x"":0.5603228985483757,""y"":0.4121875839149128,""t"":142528},{""x"":0.5605388795594932,""y"":0.4120205876191066,""t"":142573},{""x"":0.5606728466121885,""y"":0.4118979506157438,""t"":142621},{""x"":0.5607409553789078,""y"":0.4118129234079014,""t"":142669},{""x"":0.5598035323096239,""y"":0.4122437110423113,""t"":142714.00000000003},{""x"":0.5578800927148077,""y"":0.4128692932169927,""t"":142768.00000000003},{""x"":0.5562303237129045,""y"":0.413408251337325,""t"":142813},{""x"":0.5548479841827397,""y"":0.4138618965462019,""t"":142859},{""x"":0.5542631308174814,""y"":0.4139922387438205,""t"":142907},{""x"":0.5538275258620523,""y"":0.4140843708491323,""t"":142955},{""x"":0.5535193715008283,""y"":0.41414464195906275,""t"":143000.00000000003},{""x"":0.5533175237014955,""y"":0.41417900219881104,""t"":143044},{""x"":0.5532021591094535,""y"":0.41419287132048543,""t"":143098},{""x"":0.553155215055556,""y"":0.4141910627133638,""t"":143146},{""x"":0.5531606446204923,""y"":0.4141777513348102,""t"":143193}]","""","""","""","""","""","2021-01-17 11:01:37",,"Mozilla/5.0 (Macintosh; Intel Mac OS X 10_15_6) AppleWebKit/605.1.15 (KHTML, like Gecko) Version/14.0.2 Safari/605.1.15",Macintosh,Safari,14.0.2,"OS X",10_15_6
9,1,null,"""",null,html-keyboard-response,25,231033,0.0-15.0-2.0-0.4,299,0,0,"FaceTime HD-Kamera (integriert)",29.969999313354492,480,640,"""","""","""","""","""","""","""","""","""","""","""","""","""","""","""","2021-01-17 11:01:37",,"Mozilla/5.0 (Macintosh; Intel Mac OS X 10_15_6) AppleWebKit/605.1.15 (KHTML, like Gecko) Version/14.0.2 Safari/605.1.15",Macintosh,Safari,14.0.2,"OS X",10_15_6
9,1,"""","""","""",eyetracking-calibration,26,236913,0.0-15.0-2.0-1.4,299,0,0,"FaceTime HD-Kamera (integriert)",29.969999313354492,480,640,"""",1920,1080,"""",0,"""",0.5,0.5,0,"[{""x"":0.5532045250513481,""y"":0.4141564753376533,""t"":144743},{""x"":0.5532750536150596,""y"":0.41413016251027257,""t"":144804.00000000003},{""x"":0.553362460513844,""y"":0.4141011739873424,""t"":144854},{""x"":0.5534588640211268,""y"":0.4140713589786492,""t"":144902},{""x"":0.553558088701824,""y"":0.414042115463177,""t"":144949},{""x"":0.5536554635833038,""y"":0.41401445288169064,""t"":144994.00000000003},{""x"":0.553747613523603,""y"":0.4139890538200448,""t"":145040},{""x"":0.5538322538261178,""y"":0.41396633250266274,""t"":145088},{""x"":0.5539079953911645,""y"":0.41394648861276073,""t"":145139},{""x"":0.5539741653691125,""y"":0.4139295555293624,""t"":145187},{""x"":0.5540306463660165,""y"":0.413915442530586,""t"":145234},{""x"":0.5540777357188738,""y"":0.4139039708697376,""t"":145277},{""x"":0.5541160251651317,""y"":0.4138949038980466,""t"":145324},{""x"":0.5541463003378219,""y"":0.4138879715983314,""t"":145368},{""x"":0.5541694588807626,""y"":0.4138828900200545,""t"":145419},{""x"":0.5552769724515249,""y"":0.41363703686977965,""t"":145473},{""x"":0.5562157539469557,""y"":0.413428814250996,""t"":145522},{""x"":0.5560385470163217,""y"":0.4144683223486896,""t"":145578},{""x"":0.5548999624049237,""y"":0.4168136245323223,""t"":145631.00000000003},{""x"":0.5530885635230104,""y"":0.4200078534201418,""t"":145683},{""x"":0.5510010131023733,""y"":0.42388571203669406,""t"":145740},{""x"":0.5488460703051279,""y"":0.42805573221748816,""t"":145795},{""x"":0.546664853934616,""y"":0.4324229659129269,""t"":145847},{""x"":0.5444887622227356,""y"":0.4366671599664817,""t"":145913},{""x"":0.5424770884085256,""y"":0.4407623982595659,""t"":145968},{""x"":0.5406252445175938,""y"":0.44469545120884035,""t"":146022},{""x"":0.5391961405138912,""y"":0.4477359617652817,""t"":146069},{""x"":0.5370452473308066,""y"":0.4512087231106377,""t"":146122},{""x"":0.5353721115258769,""y"":0.4538347576813797,""t"":146170},{""x"":0.5345269507554327,""y"":0.45548925867076606,""t"":146232.00000000003},{""x"":0.5343884854783614,""y"":0.45608189209490496,""t"":146282},{""x"":0.5344302219904402,""y"":0.45627837250317765,""t"":146333.00000000003},{""x"":0.5351486060103043,""y"":0.4559322571520833,""t"":146382},{""x"":0.5357390590567148,""y"":0.45564725654706284,""t"":146434},{""x"":0.5365999677410097,""y"":0.4549706896800448,""t"":146488.00000000003},{""x"":0.5375313948328204,""y"":0.45399515688989217,""t"":146542.00000000003},{""x"":0.5384986106328556,""y"":0.4528008715492443,""t"":146596},{""x"":0.5393382408379969,""y"":0.4516980622545034,""t"":146647},{""x"":0.5400504006970006,""y"":0.45094883453486717,""t"":146697},{""x"":0.5407765432214698,""y"":0.45004235990678443,""t"":146753},{""x"":0.541368555844777,""y"":0.4492613624380955,""t"":146814},{""x"":0.5418380805241312,""y"":0.4486039549072899,""t"":146862},{""x"":0.5423348826662375,""y"":0.44806384575732455,""t"":146914},{""x"":0.5425801437478371,""y"":0.4478740804917786,""t"":146965},{""x"":0.5427456517668464,""y"":0.4477448440093391,""t"":147017},{""x"":0.5428457205883495,""y"":0.4476654163884397,""t"":147064},{""x"":0.5431661430524873,""y"":0.44689889137688704,""t"":147114},{""x"":0.5434052003118669,""y"":0.4462724059788423,""t"":147169},{""x"":0.5437110290381063,""y"":0.4452894591569425,""t"":147217},{""x"":0.5440746747039708,""y"":0.4442512480728903,""t"":147269},{""x"":0.5443509190835124,""y"":0.4434190263823873,""t"":147316},{""x"":0.544824320665984,""y"":0.4420448469343963,""t"":147369.00000000003},{""x"":0.5451931686657588,""y"":0.4409419431736861,""t"":147414},{""x"":0.545606524737104,""y"":0.4393560088100882,""t"":147471},{""x"":0.5461933154757531,""y"":0.4373662290988655,""t"":147519},{""x"":0.5467898607920322,""y"":0.43553174874445,""t"":147570},{""x"":0.5472542910807493,""y"":0.434090270074791,""t"":147615},{""x"":0.5476027774563874,""y"":0.43299606464155543,""t"":147661.00000000003},{""x"":0.5478518538594527,""y"":0.4322016087728982,""t"":147709},{""x"":0.5482902985253753,""y"":0.43093291901821373,""t"":147764},{""x"":0.5486198246965343,""y"":0.4299813227937289,""t"":147810.00000000003},{""x"":0.5487195631682324,""y"":0.42954388249836506,""t"":147858},{""x"":0.5490340077667165,""y"":0.4285707073218267,""t"":147907},{""x"":0.5492631546711603,""y"":0.4278575089136127,""t"":147953},{""x"":0.5498291942931933,""y"":0.4263951536084082,""t"":148000.00000000003},{""x"":0.5502744982769339,""y"":0.4252602408966152,""t"":148049},{""x"":0.5506130174873438,""y"":0.424412050672171,""t"":148096},{""x"":0.5505866519830137,""y"":0.424293835233326,""t"":148148},{""x"":0.5505232937824633,""y"":0.4243079424231072,""t"":148192},{""x"":0.550435135944553,""y"":0.4244191807951848,""t"":148238.00000000003},{""x"":0.550332163172384,""y"":0.42459771981095895,""t"":148284},{""x"":0.5502223340721554,""y"":0.4248188690294804,""t"":148338},{""x"":0.5501117960108667,""y"":0.42506271137041735,""t"":148384},{""x"":0.5498687996634162,""y"":0.4257983217983044,""t"":148434},{""x"":0.5496533171457632,""y"":0.4264565532540027,""t"":148479},{""x"":0.5494666876340019,""y"":0.4270315700074995,""t"":148530.00000000003},{""x"":0.5493087562679205,""y"":0.42752236176309083,""t"":148576},{""x"":0.549178271317441,""y"":0.42793152075687235,""t"":148622},{""x"":0.5490732208726162,""y"":0.428264196140112,""t"":148675},{""x"":0.5488547956793869,""y"":0.4290118993095989,""t"":148728},{""x"":0.5486769993522446,""y"":0.4296250888983579,""t"":148775},{""x"":0.54853624488899,""y"":0.43011466797065195,""t"":148822},{""x"":0.5484284160112146,""y"":0.43049358505731067,""t"":148876},{""x"":0.548349168831392,""y"":0.43077578561061325,""t"":148926},{""x"":0.5482941635866009,""y"":0.4309753983799274,""t"":148972},{""x"":0.5482592355579301,""y"":0.4311061274697077,""t"":149017},{""x"":0.5481041984562286,""y"":0.43142315965221395,""t"":149066},{""x"":0.5479823061706038,""y"":0.43165952760932164,""t"":149117},{""x"":0.5478897148136895,""y"":0.43182697527164254,""t"":149162},{""x"":0.5478224252540003,""y"":0.43193690440797106,""t"":149219},{""x"":0.5477764822460156,""y"":0.4320000122888919,""t"":149264},{""x"":0.5477481197033105,""y"":0.4320260521049626,""t"":149314},{""x"":0.5475975445909113,""y"":0.43250837212706894,""t"":149362},{""x"":0.5474783844954973,""y"":0.43289715213617946,""t"":149413},{""x"":0.5473871399782995,""y"":0.43320146541166726,""t"":149459},{""x"":0.5473201211110662,""y"":0.4334313582071196,""t"":149516},{""x"":0.5472736435760619,""y"":0.4335971969315314,""t"":149560.00000000003},{""x"":0.5472441732191451,""y"":0.43370917350165095,""t"":149606},{""x"":0.5472284268180101,""y"":0.4337769470723973,""t"":149654},{""x"":0.5470871206695065,""y"":0.43405173996114554,""t"":149702.00000000003},{""x"":0.5469743910460657,""y"":0.43426283694620327,""t"":149752},{""x"":0.5468872265568214,""y"":0.43441854247033423,""t"":149801},{""x"":0.5468223907421211,""y"":0.43452718282774555,""t"":149850},{""x"":0.5467766092514069,""y"":0.4345967704468581,""t"":149897},{""x"":0.5467467095334337,""y"":0.43463476847868054,""t"":149943},{""x"":0.5465934040692609,""y"":0.43513261738859293,""t"":149995},{""x"":0.5464707409441485,""y"":0.4355389469578793,""t"":150044},{""x"":0.5463755617860453,""y"":0.43586160605633095,""t"":150089.00000000003},{""x"":0.5463044455733909,""y"":0.43610970542984767,""t"":150145},{""x"":0.5462539129636553,""y"":0.4362929263455761,""t"":150193},{""x"":0.5462205794551438,""y"":0.43642098757129183,""t"":150240},{""x"":0.5462012647034548,""y"":0.436503250374107,""t"":150285},{""x"":0.5460567492735481,""y"":0.4367907803805341,""t"":150334},{""x"":0.5459412026542224,""y"":0.43701281613015597,""t"":150383},{""x"":0.5458516224298252,""y"":0.4371776992034938,""t"":150436},{""x"":0.5457847628635986,""y"":0.437293853115273,""t"":150482.00000000003},{""x"":0.5457373272203567,""y"":0.43736942801878065,""t"":150528},{""x"":0.5457061117744652,""y"":0.4374120492346947,""t"":150574}]","""","""","""","""","""","2021-01-17 11:01:37",,"Mozilla/5.0 (Macintosh; Intel Mac OS X 10_15_6) AppleWebKit/605.1.15 (KHTML, like Gecko) Version/14.0.2 Safari/605.1.15",Macintosh,Safari,14.0.2,"OS X",10_15_6
9,1,null,"""",null,html-keyboard-response,27,238417,0.0-15.0-2.0-0.5,299,0,0,"FaceTime HD-Kamera (integriert)",29.969999313354492,480,640,"""","""","""","""","""","""","""","""","""","""","""","""","""","""","""","2021-01-17 11:01:37",,"Mozilla/5.0 (Macintosh; Intel Mac OS X 10_15_6) AppleWebKit/605.1.15 (KHTML, like Gecko) Version/14.0.2 Safari/605.1.15",Macintosh,Safari,14.0.2,"OS X",10_15_6
9,1,"""","""","""",eyetracking-calibration,28,244211,0.0-15.0-2.0-1.5,299,0,0,"FaceTime HD-Kamera (integriert)",29.969999313354492,480,640,"""",1920,1080,"""",0,"""",0.65,0.65,0,"[{""x"":0.5456881084408501,""y"":0.43742865239739576,""t"":152127},{""x"":0.5456805727908864,""y"":0.43742538908236145,""t"":152179.00000000003},{""x"":0.5456810638171651,""y"":0.437407588208174,""t"":152227},{""x"":0.545687461265199,""y"":0.4373797601452121,""t"":152274.00000000003},{""x"":0.5456979657164813,""y"":0.43734563219071865,""t"":152319},{""x"":0.5457110859340317,""y"":0.4373082057948399,""t"":152365},{""x"":0.5457256173057108,""y"":0.43726982757677907,""t"":152413},{""x"":0.5457406145696146,""y"":0.43723226770722384,""t"":152465},{""x"":0.545755361399062,""y"":0.4371968006225495,""t"":152512.00000000003},{""x"":0.5457693388745467,""y"":0.437164284261543,""t"":152562},{""x"":0.545782194383526,""y"":0.4371352350709353,""t"":152607.00000000003},{""x"":0.5457937120686708,""y"":0.4371098969144422,""t"":152654},{""x"":0.5458037855905363,""y"":0.43708830274983806,""t"":152703},{""x"":0.5456760778164511,""y"":0.43779734645286084,""t"":152767},{""x"":0.5455673847736118,""y"":0.4384007734959311,""t"":152818},{""x"":0.546294932834501,""y"":0.4401140073268989,""t"":152871},{""x"":0.5478711902617699,""y"":0.443004507713386,""t"":152927},{""x"":0.5500197355260534,""y"":0.44686977766015923,""t"":152983},{""x"":0.552629485838543,""y"":0.4512793463935256,""t"":153038},{""x"":0.5556001526583986,""y"":0.4560994782508967,""t"":153102},{""x"":0.5585707595897238,""y"":0.4612151677782173,""t"":153161.00000000003},{""x"":0.5616424726295312,""y"":0.4665297955791907,""t"":153213},{""x"":0.5640887199407696,""y"":0.47075244898780544,""t"":153262.00000000003},{""x"":0.5665215131595144,""y"":0.4752132656488131,""t"":153314},{""x"":0.5683852598976518,""y"":0.4786449059948537,""t"":153363.00000000003},{""x"":0.5697550283264792,""y"":0.4811807256228983,""t"":153426},{""x"":0.5712510807063044,""y"":0.48392403897242714,""t"":153477},{""x"":0.5725910093172487,""y"":0.48637392422126785,""t"":153528},{""x"":0.5735312230647301,""y"":0.48809879863651523,""t"":153578},{""x"":0.5741390741732375,""y"":0.48922005434864096,""t"":153628},{""x"":0.5752953547927802,""y"":0.4908205925697965,""t"":153681},{""x"":0.5761166579939818,""y"":0.491888970437901,""t"":153737},{""x"":0.5769307370350553,""y"":0.49300680372514705,""t"":153790},{""x"":0.577339555121975,""y"":0.49394790087363516,""t"":153845.00000000003},{""x"":0.5775486505192391,""y"":0.4945155778113639,""t"":153902},{""x"":0.577465692945557,""y"":0.49478506960237445,""t"":153955},{""x"":0.5770134500867662,""y"":0.494339059731284,""t"":154006.00000000003},{""x"":0.5765378446121842,""y"":0.49379377444045475,""t"":154054.00000000003},{""x"":0.5753822616189127,""y"":0.4922274509230589,""t"":154107.00000000003},{""x"":0.5738035729905099,""y"":0.48982261056394244,""t"":154153},{""x"":0.5724377794013057,""y"":0.48771659446404414,""t"":154203},{""x"":0.5718285548786994,""y"":0.4868840179197537,""t"":154262.00000000003},{""x"":0.5710667049390332,""y"":0.48571733979429216,""t"":154312},{""x"":0.5704537173683236,""y"":0.4847615262664729,""t"":154364},{""x"":0.569974925638199,""y"":0.4839992704924474,""t"":154412},{""x"":0.5696141832210072,""y"":0.4834101239637467,""t"":154467},{""x"":0.569354890884203,""y"":0.48297212920494365,""t"":154516},{""x"":0.5697260365046332,""y"":0.48363244219703216,""t"":154576},{""x"":0.5700852139123539,""y"":0.4842548689806194,""t"":154625.00000000003},{""x"":0.5704213201360273,""y"":0.4848246565802993,""t"":154676},{""x"":0.5704544408078027,""y"":0.4848483209064248,""t"":154730},{""x"":0.5704939096670516,""y"":0.4848791426796926,""t"":154780.00000000003},{""x"":0.5702638692219462,""y"":0.4844293484193753,""t"":154831},{""x"":0.5700753215234982,""y"":0.48405383857261797,""t"":154885},{""x"":0.5693796161330842,""y"":0.4825363570693449,""t"":154934},{""x"":0.5687997568734656,""y"":0.48126414009828955,""t"":154980},{""x"":0.5683284054564922,""y"":0.4802234175405248,""t"":155026},{""x"":0.5679558436993309,""y"":0.47939484840478724,""t"":155073},{""x"":0.5676709815690681,""y"":0.4787557454185535,""t"":155120},{""x"":0.5671895240423281,""y"":0.47779717138848293,""t"":155182},{""x"":0.5662680907005586,""y"":0.47584031890159434,""t"":155230},{""x"":0.5655210484251323,""y"":0.4742522295364005,""t"":155277},{""x"":0.5649323621762947,""y"":0.47299932937660233,""t"":155329},{""x"":0.5644839175438693,""y"":0.4720435470492717,""t"":155376},{""x"":0.5641567829065154,""y"":0.471344999720603,""t"":155423.00000000003},{""x"":0.5632505943294455,""y"":0.4696523513388323,""t"":155471},{""x"":0.5625311884614194,""y"":0.4683210788771542,""t"":155521},{""x"":0.5612966124114193,""y"":0.46609766680516357,""t"":155570},{""x"":0.5605816295466199,""y"":0.4650589599113954,""t"":155622},{""x"":0.5593656592869504,""y"":0.46286509542214105,""t"":155675},{""x"":0.5584063838570681,""y"":0.46113920974677297,""t"":155724},{""x"":0.5576746386353766,""y"":0.45982722291367906,""t"":155778},{""x"":0.5571398743908986,""y"":0.4588728049527958,""t"":155826},{""x"":0.5567717304375933,""y"":0.4582201973197054,""t"":155872},{""x"":0.5565411885799232,""y"":0.4578162732309483,""t"":155922},{""x"":0.5568303194189566,""y"":0.45833897238029403,""t"":155977},{""x"":0.5571446310388098,""y"":0.45890813112484236,""t"":156026},{""x"":0.5574650757709032,""y"":0.4594890321466829,""t"":156071.00000000003},{""x"":0.5577773481502379,""y"":0.460055579183796,""t"":156119.00000000003},{""x"":0.5580712107273841,""y"":0.4605890749514227,""t"":156166},{""x"":0.5583398351046144,""y"":0.4610770256682009,""t"":156213},{""x"":0.5588518120524288,""y"":0.46223903053488014,""t"":156270},{""x"":0.5592918113681588,""y"":0.46323569215514165,""t"":156318},{""x"":0.5596612328979015,""y"":0.4640707842881532,""t"":156366},{""x"":0.5599639073382756,""y"":0.4647534965249067,""t"":156414},{""x"":0.560205308195562,""y"":0.4652966526083657,""t"":156463},{""x"":0.5603919048860927,""y"":0.4657152510330985,""t"":156510},{""x"":0.5609395932621128,""y"":0.4665099800364233,""t"":156575},{""x"":0.5620667180870523,""y"":0.4683513114436165,""t"":156630},{""x"":0.5629985861770718,""y"":0.4698641344970407,""t"":156679.00000000003},{""x"":0.5637493684210445,""y"":0.47107447042409867,""t"":156737},{""x"":0.5643367038325623,""y"":0.4720135185575269,""t"":156787},{""x"":0.5647800927584518,""y"":0.47271506455718193,""t"":156836},{""x"":0.5653722685803619,""y"":0.4739404823946576,""t"":156891},{""x"":0.5658194728920881,""y"":0.47488716809543285,""t"":156940},{""x"":0.5661419244112448,""y"":0.47559055299924374,""t"":156987},{""x"":0.5663594944412039,""y"":0.4760864379290258,""t"":157037},{""x"":0.5664910102341908,""y"":0.47640947758429797,""t"":157090},{""x"":0.5665537820618308,""y"":0.4765921070334935,""t"":157137.00000000003},{""x"":0.5668359459106463,""y"":0.47714851576315753,""t"":157188},{""x"":0.567037550928416,""y"":0.47754753985251647,""t"":157237},{""x"":0.5671716912296458,""y"":0.4778145564026892,""t"":157283},{""x"":0.5672507076988786,""y"":0.4779735325443357,""t"":157332},{""x"":0.5672858960214976,""y"":0.478046444568863,""t"":157388},{""x"":0.5672873325552362,""y"":0.4780529279917991,""t"":157442},{""x"":0.5675364258255651,""y"":0.4784947905967121,""t"":157493},{""x"":0.5677271380511149,""y"":0.4788292859745709,""t"":157542.00000000003},{""x"":0.5678671905498072,""y"":0.4790712578290135,""t"":157588},{""x"":0.5674190281283412,""y"":0.478265974641378,""t"":157638},{""x"":0.5670170584972415,""y"":0.4775420141670615,""t"":157689},{""x"":0.5666651231454972,""y"":0.47690678500954337,""t"":157737},{""x"":0.5663640751215289,""y"":0.4763622400340133,""t"":157784},{""x"":0.5661125273780605,""y"":0.4759062268800117,""t"":157829},{""x"":0.5659074940376212,""y"":0.4755336477126336,""t"":157875.00000000003}]","""","""","""","""","""","2021-01-17 11:01:37",,"Mozilla/5.0 (Macintosh; Intel Mac OS X 10_15_6) AppleWebKit/605.1.15 (KHTML, like Gecko) Version/14.0.2 Safari/605.1.15",Macintosh,Safari,14.0.2,"OS X",10_15_6
9,1,null,"""",null,html-keyboard-response,29,245715,0.0-15.0-2.0-0.6,299,0,0,"FaceTime HD-Kamera (integriert)",29.969999313354492,480,640,"""","""","""","""","""","""","""","""","""","""","""","""","""","""","""","2021-01-17 11:01:37",,"Mozilla/5.0 (Macintosh; Intel Mac OS X 10_15_6) AppleWebKit/605.1.15 (KHTML, like Gecko) Version/14.0.2 Safari/605.1.15",Macintosh,Safari,14.0.2,"OS X",10_15_6
9,1,"""","""","""",eyetracking-calibration,30,250990,0.0-15.0-2.0-1.6,299,0,0,"FaceTime HD-Kamera (integriert)",29.969999313354492,480,640,"""",1920,1080,"""",0,"""",0.5,0.8,0,"[{""x"":0.5657449271887425,""y"":0.47523743217489617,""t"":159425},{""x"":0.5656201552802524,""y"":0.4750093338701991,""t"":159486},{""x"":0.5655282314930565,""y"":0.4748405649945315,""t"":159538},{""x"":0.5654642018435694,""y"":0.4747222863263769,""t"":159591},{""x"":0.5654233034013386,""y"":0.47464597101114164,""t"":159637.00000000003},{""x"":0.5654011030558154,""y"":0.4746036607534561,""t"":159686},{""x"":0.5653935868923536,""y"":0.47458813242332193,""t"":159733},{""x"":0.56539720956205,""y"":0.47459299192002735,""t"":159783},{""x"":0.565408912159403,""y"":0.47461271061226473,""t"":159837},{""x"":0.5654261161415843,""y"":0.4746426179395373,""t"":159885},{""x"":0.5654466998008599,""y"":0.4746788619418354,""t"":159932},{""x"":0.5654689627889404,""y"":0.47471834767594034,""t"":159981},{""x"":0.5654915832264024,""y"":0.47475866174677206,""t"":160027},{""x"":0.5660588344856043,""y"":0.47576734681952887,""t"":160078},{""x"":0.5669519436753941,""y"":0.477840106251311,""t"":160139},{""x"":0.5675668918425462,""y"":0.4812844593371326,""t"":160196.00000000003},{""x"":0.5677951505074247,""y"":0.4861041343217958,""t"":160254},{""x"":0.5676875952701429,""y"":0.49179939402501777,""t"":160309},{""x"":0.5672950956378385,""y"":0.4981722352893689,""t"":160364},{""x"":0.5666665004952985,""y"":0.5050496228601608,""t"":160418},{""x"":0.5658472309150544,""y"":0.5122838125748737,""t"":160489},{""x"":0.5650146929836152,""y"":0.5195092482869408,""t"":160545},{""x"":0.5640483973848693,""y"":0.526662038367017,""t"":160602},{""x"":0.5632529965621942,""y"":0.5322438566372218,""t"":160655.00000000003},{""x"":0.5619337078442419,""y"":0.5371716602926223,""t"":160714.00000000003},{""x"":0.5607219861071364,""y"":0.5415314097393802,""t"":160769},{""x"":0.5592081127956148,""y"":0.5451667417975377,""t"":160829},{""x"":0.5579938628646027,""y"":0.547711891918834,""t"":160879},{""x"":0.5569126257621634,""y"":0.5495936562872779,""t"":160936},{""x"":0.55608811499877,""y"":0.5514324561373276,""t"":160988.00000000003},{""x"":0.5554858165438402,""y"":0.5525497332397733,""t"":161040},{""x"":0.555071442604929,""y"":0.5530900478589817,""t"":161094},{""x"":0.5548122313519888,""y"":0.5531829919141098,""t"":161150},{""x"":0.5545415301285923,""y"":0.5536689883721245,""t"":161203},{""x"":0.5543887484766352,""y"":0.5538089778403674,""t"":161254},{""x"":0.5544653948206054,""y"":0.5522339354026659,""t"":161306},{""x"":0.5548653422219361,""y"":0.5494773089049309,""t"":161354},{""x"":0.5552567759393406,""y"":0.5469858134974313,""t"":161407},{""x"":0.5557627262993746,""y"":0.5433347675677701,""t"":161460},{""x"":0.5562174952658185,""y"":0.5402062101117525,""t"":161519.00000000003},{""x"":0.5567527702516443,""y"":0.5366180297432853,""t"":161571},{""x"":0.5570742766081982,""y"":0.5353516757839465,""t"":161620.00000000003},{""x"":0.5573408944405699,""y"":0.5344101615930262,""t"":161670.00000000003},{""x"":0.5575564225954951,""y"":0.5327764260394124,""t"":161720},{""x"":0.5577256905111541,""y"":0.5315189594347701,""t"":161769.00000000003},{""x"":0.5581267288017028,""y"":0.5291350838726516,""t"":161825.99999999997},{""x"":0.5584516354914096,""y"":0.5272479422403212,""t"":161876},{""x"":0.5588437749870648,""y"":0.5243482838288991,""t"":161924},{""x"":0.5591543353782306,""y"":0.5220498850819288,""t"":161972},{""x"":0.5592560436940766,""y"":0.5210134913893822,""t"":162026.00000000003},{""x"":0.5593152045589044,""y"":0.5203329527362213,""t"":162075.99999999997},{""x"":0.5593406090286888,""y"":0.5199421044054084,""t"":162133},{""x"":0.5593400851832477,""y"":0.519780617366781,""t"":162179},{""x"":0.559593071634232,""y"":0.5183408260982264,""t"":162229},{""x"":0.5597918442693917,""y"":0.517248211366137,""t"":162275},{""x"":0.5598063984103688,""y"":0.5171822296934077,""t"":162325.99999999997},{""x"":0.5600726773490236,""y"":0.5155634983862805,""t"":162373},{""x"":0.5602828974608319,""y"":0.5143020616631221,""t"":162430.00000000003},{""x"":0.5604433991168486,""y"":0.5133544009204138,""t"":162481},{""x"":0.560697149611409,""y"":0.5109795763904275,""t"":162526.00000000003},{""x"":0.5608940127564427,""y"":0.5100540868278988,""t"":162575.99999999997},{""x"":0.5611773910113196,""y"":0.5077163405078844,""t"":162625.00000000003},{""x"":0.5613977363383775,""y"":0.5058681078503472,""t"":162672},{""x"":0.5615628131201735,""y"":0.5044545216530446,""t"":162723.00000000003},{""x"":0.5616805440672036,""y"":0.5034178484587644,""t"":162772},{""x"":0.5617586547764994,""y"":0.5027005268948173,""t"":162819.00000000003},{""x"":0.5618044191308919,""y"":0.5022474039784357,""t"":162866},{""x"":0.5616881733749634,""y"":0.5027343086000251,""t"":162916},{""x"":0.5615726005805334,""y"":0.5032789875103892,""t"":162965},{""x"":0.5614621051416246,""y"":0.5038447322524516,""t"":163020},{""x"":0.561359737473708,""y"":0.5044036070360279,""t"":163066},{""x"":0.5612674274878195,""y"":0.5049352598850705,""t"":163116},{""x"":0.5611862013675606,""y"":0.5054257443679049,""t"":163171},{""x"":0.5611163774274813,""y"":0.5068357530798876,""t"":163226.00000000003},{""x"":0.5610577387652963,""y"":0.5080461715585236,""t"":163276.00000000003},{""x"":0.561009681938833,""y"":0.5090612650257246,""t"":163327.00000000003},{""x"":0.5606987103261988,""y"":0.5115882989187526,""t"":163378},{""x"":0.5601646758600872,""y"":0.5151459467430892,""t"":163431},{""x"":0.559718472598649,""y"":0.5188166352210108,""t"":163484},{""x"":0.5593547972789871,""y"":0.5218083717364627,""t"":163541},{""x"":0.5590664637915713,""y"":0.5241802837281918,""t"":163591.00000000003},{""x"":0.5588451807799134,""y"":0.5260005890824353,""t"":163638},{""x"":0.5586821695263681,""y"":0.5273415132255518,""t"":163688},{""x"":0.5584323235746198,""y"":0.5290023956465906,""t"":163738.00000000003},{""x"":0.5582439456127914,""y"":0.5302167430659865,""t"":163788.00000000003},{""x"":0.5581084138732874,""y"":0.5310532969677255,""t"":163846.00000000003},{""x"":0.5580172686654584,""y"":0.5315777805571062,""t"":163894.00000000003},{""x"":0.5579625052408407,""y"":0.5318510838996701,""t"":163942.00000000003},{""x"":0.557800456115013,""y"":0.5326551335408019,""t"":164000.00000000003},{""x"":0.5576812968707647,""y"":0.5332022264702486,""t"":164049},{""x"":0.5575985247599605,""y"":0.5335379319845224,""t"":164101.00000000003},{""x"":0.5575458968352013,""y"":0.5337042706606994,""t"":164152},{""x"":0.5575176093814148,""y"":0.5337389777379971,""t"":164200},{""x"":0.5575084129772454,""y"":0.5344021470642262,""t"":164255},{""x"":0.5575136754733723,""y"":0.5348860843250735,""t"":164304},{""x"":0.5576657198851976,""y"":0.5337644834246007,""t"":164357},{""x"":0.5579407458070572,""y"":0.5312818241255862,""t"":164406.00000000003},{""x"":0.5581799920097725,""y"":0.5291265784025428,""t"":164452.00000000003},{""x"":0.5583833408870128,""y"":0.5272984728608475,""t"":164500.00000000003},{""x"":0.5585521283409334,""y"":0.5257843400307716,""t"":164547},{""x"":0.5586887104144027,""y"":0.5245620149577126,""t"":164601.00000000003},{""x"":0.5587961029155468,""y"":0.5236035685512771,""t"":164649.00000000003}]","""","""","""","""","""","2021-01-17 11:01:37",,"Mozilla/5.0 (Macintosh; Intel Mac OS X 10_15_6) AppleWebKit/605.1.15 (KHTML, like Gecko) Version/14.0.2 Safari/605.1.15",Macintosh,Safari,14.0.2,"OS X",10_15_6
9,1,null,"""",null,html-keyboard-response,31,252493,0.0-15.0-2.0-0.7,299,0,0,"FaceTime HD-Kamera (integriert)",29.969999313354492,480,640,"""","""","""","""","""","""","""","""","""","""","""","""","""","""","""","2021-01-17 11:01:37",,"Mozilla/5.0 (Macintosh; Intel Mac OS X 10_15_6) AppleWebKit/605.1.15 (KHTML, like Gecko) Version/14.0.2 Safari/605.1.15",Macintosh,Safari,14.0.2,"OS X",10_15_6
9,1,"""","""","""",eyetracking-calibration,32,257775,0.0-15.0-2.0-1.7,299,0,0,"FaceTime HD-Kamera (integriert)",29.969999313354492,480,640,"""",1920,1080,"""",0,"""",0.8,0.8,0,"[{""x"":0.558877689213439,""y"":0.5228779231328239,""t"":166205.99999999997},{""x"":0.5589369899437527,""y"":0.5223529082138184,""t"":166260},{""x"":0.5589774875482145,""y"":0.5219968215342162,""t"":166313},{""x"":0.5590024982504755,""y"":0.5217795629783866,""t"":166363.00000000003},{""x"":0.5590150841270461,""y"":0.5216734082170458,""t"":166413.00000000003},{""x"":0.5590179982642725,""y"":0.5216534857064868,""t"":166462.99999999997},{""x"":0.5590136565154672,""y"":0.5216980157793184,""t"":166510},{""x"":0.5590041300155895,""y"":0.5217883646177148,""t"":166563},{""x"":0.5589911533173415,""y"":0.5219089594201858,""t"":166611},{""x"":0.5589761437376818,""y"":0.5220471044534092,""t"":166659.99999999997},{""x"":0.5589602282139299,""y"":0.522192731220596,""t"":166708},{""x"":0.5588079587776456,""y"":0.5237921457523986,""t"":166760},{""x"":0.5586767313306057,""y"":0.5251676122097415,""t"":166812.00000000003},{""x"":0.5591115030460724,""y"":0.5280196046886583,""t"":166871},{""x"":0.5609836858638423,""y"":0.5321055257252797,""t"":166926.99999999997},{""x"":0.5640699360900999,""y"":0.5369550281165547,""t"":166982},{""x"":0.5680209316810196,""y"":0.5423962456054391,""t"":167039.99999999997},{""x"":0.572660178283239,""y"":0.5482788422866568,""t"":167097},{""x"":0.5764669385384547,""y"":0.5530202999841616,""t"":167149.00000000003},{""x"":0.5807350646108305,""y"":0.557943062115053,""t"":167212.99999999997},{""x"":0.5841335832560907,""y"":0.561776362167229,""t"":167264.00000000003},{""x"":0.5878459262883232,""y"":0.5658651115867432,""t"":167321},{""x"":0.5916716480250197,""y"":0.5701638893586962,""t"":167385},{""x"":0.5955739446971141,""y"":0.5746308382424813,""t"":167437.00000000003},{""x"":0.5985683991079933,""y"":0.5780166944256238,""t"":167485.00000000003},{""x"":0.6007739376238328,""y"":0.5804702159720029,""t"":167533.00000000003},{""x"":0.6023096277381824,""y"":0.5821381784797225,""t"":167583},{""x"":0.6046530807226731,""y"":0.5831600767503744,""t"":167640},{""x"":0.6067522171599985,""y"":0.5841491803535867,""t"":167692},{""x"":0.6089223442299472,""y"":0.5846635874210767,""t"":167756},{""x"":0.6102078731735036,""y"":0.5845648116585025,""t"":167808},{""x"":0.6110207241129046,""y"":0.5842228958923376,""t"":167855},{""x"":0.611452393459245,""y"":0.5837150275279913,""t"":167907},{""x"":0.6109039587491675,""y"":0.5826200906059569,""t"":167956},{""x"":0.6091415162113717,""y"":0.5803347195669655,""t"":168018},{""x"":0.6062512007247685,""y"":0.5768352326073604,""t"":168072},{""x"":0.6040927685521847,""y"":0.5745389610866432,""t"":168122.00000000006},{""x"":0.6022131915302615,""y"":0.5726050748446813,""t"":168172},{""x"":0.5995234527457036,""y"":0.5698036777198736,""t"":168222},{""x"":0.5972675844032566,""y"":0.5675010580088318,""t"":168271.00000000006},{""x"":0.5943309116361939,""y"":0.5642038969168428,""t"":168317},{""x"":0.5913881337610164,""y"":0.5610523419543818,""t"":168379},{""x"":0.5879296477815072,""y"":0.5570904383674806,""t"":168427},{""x"":0.5851528875426661,""y"":0.553921150077493,""t"":168476},{""x"":0.5829894794253611,""y"":0.5514626378985634,""t"":168526},{""x"":0.5813646358553403,""y"":0.5496263117550934,""t"":168574},{""x"":0.5791112711841542,""y"":0.5471104121303245,""t"":168621},{""x"":0.5779538459721716,""y"":0.5459477418667005,""t"":168679},{""x"":0.5759618594690697,""y"":0.5437592440251923,""t"":168729},{""x"":0.5733832223354682,""y"":0.540679957369506,""t"":168778},{""x"":0.5713990646799656,""y"":0.5382989181661845,""t"":168827},{""x"":0.5704776975672426,""y"":0.5372547628454432,""t"":168878},{""x"":0.569914783202547,""y"":0.5366220512405759,""t"":168932.00000000006},{""x"":0.569638815146534,""y"":0.5363181740657862,""t"":168982},{""x"":0.5695856294709661,""y"":0.5362691102924955,""t"":169029},{""x"":0.5696990260545385,""y"":0.536410113069412,""t"":169079},{""x"":0.5699309116375723,""y"":0.5366858485533518,""t"":169129},{""x"":0.5702410841342088,""y"":0.5370501253362254,""t"":169179},{""x"":0.5705967606429175,""y"":0.5374653323436943,""t"":169227},{""x"":0.5715171983905748,""y"":0.5386287017145397,""t"":169287},{""x"":0.5723554103078079,""y"":0.5396813858927065,""t"":169335},{""x"":0.573099696004385,""y"":0.5406106328224872,""t"":169385},{""x"":0.5737451399934375,""y"":0.541411920218255,""t"":169432.00000000006},{""x"":0.5742920307194919,""y"":0.5420869808488075,""t"":169479},{""x"":0.5747444871199593,""y"":0.5426420967488816,""t"":169526},{""x"":0.575790872146732,""y"":0.5438136775088968,""t"":169587},{""x"":0.5766558996106405,""y"":0.5447770188494321,""t"":169635},{""x"":0.577352751731002,""y"":0.5455484421840529,""t"":169684},{""x"":0.5778978259276134,""y"":0.5461476035155762,""t"":169734},{""x"":0.5783092434346332,""y"":0.5465958416545067,""t"":169783.00000000006},{""x"":0.5786056799292933,""y"":0.546914892057261,""t"":169830},{""x"":0.5793507436894797,""y"":0.5478529394970518,""t"":169889},{""x"":0.5799347936206734,""y"":0.5485938726419864,""t"":169940},{""x"":0.5803768235026043,""y"":0.5491599159265804,""t"":169989},{""x"":0.5806964846569703,""y"":0.5495744085170452,""t"":170037},{""x"":0.5814583984533446,""y"":0.5503452661697339,""t"":170091},{""x"":0.5820539243830687,""y"":0.5509373834169681,""t"":170141},{""x"":0.5835935348182362,""y"":0.5528281096794414,""t"":170197},{""x"":0.5857979407914576,""y"":0.5555804744211662,""t"":170249},{""x"":0.5875960651453961,""y"":0.5578316696217702,""t"":170297},{""x"":0.589022977009784,""y"":0.5596236424187048,""t"":170346},{""x"":0.59066454280187,""y"":0.5614902403720502,""t"":170398},{""x"":0.5919368271471794,""y"":0.5629266690478809,""t"":170448},{""x"":0.5928860560017823,""y"":0.5639885847845074,""t"":170503},{""x"":0.5935591605062706,""y"":0.5647319203503463,""t"":170554},{""x"":0.5940017323865253,""y"":0.5652105957972635,""t"":170603},{""x"":0.5942565675655547,""y"":0.5654749082146621,""t"":170654},{""x"":0.5949079652052548,""y"":0.5662975044477773,""t"":170706},{""x"":0.5953636232410005,""y"":0.5668827391278337,""t"":170756},{""x"":0.5956567126950275,""y"":0.5672695412982742,""t"":170820},{""x"":0.595818165977312,""y"":0.5674945157679461,""t"":170868},{""x"":0.5958760368375773,""y"":0.5675911006571175,""t"":170917},{""x"":0.596264089511351,""y"":0.5680737495624679,""t"":170971},{""x"":0.5965335062657118,""y"":0.5684110066647052,""t"":171019},{""x"":0.5967046593967781,""y"":0.5686275582488389,""t"":171080},{""x"":0.5967964837389098,""y"":0.5687464134984046,""t"":171128},{""x"":0.5958718914036554,""y"":0.567576734957712,""t"":171176},{""x"":0.5944980014765485,""y"":0.5660456548199256,""t"":171229},{""x"":0.5933095529210721,""y"":0.5647197268375486,""t"":171279},{""x"":0.5923051129072011,""y"":0.5635978081039589,""t"":171331},{""x"":0.5914763307572725,""y"":0.5626709692911763,""t"":171379},{""x"":0.5908100794942477,""y"":0.5619248864606392,""t"":171435}]","""","""","""","""","""","2021-01-17 11:01:37",,"Mozilla/5.0 (Macintosh; Intel Mac OS X 10_15_6) AppleWebKit/605.1.15 (KHTML, like Gecko) Version/14.0.2 Safari/605.1.15",Macintosh,Safari,14.0.2,"OS X",10_15_6
9,1,null,"""",null,html-keyboard-response,33,259282,0.0-15.0-2.0-0.8,299,0,0,"FaceTime HD-Kamera (integriert)",29.969999313354492,480,640,"""","""","""","""","""","""","""","""","""","""","""","""","""","""","""","2021-01-17 11:01:37",,"Mozilla/5.0 (Macintosh; Intel Mac OS X 10_15_6) AppleWebKit/605.1.15 (KHTML, like Gecko) Version/14.0.2 Safari/605.1.15",Macintosh,Safari,14.0.2,"OS X",10_15_6
9,1,"""","""","""",eyetracking-calibration,34,264548,0.0-15.0-2.0-1.8,299,0,0,"FaceTime HD-Kamera (integriert)",29.969999313354492,480,640,"""",1920,1080,"""",0,"""",0.35,0.35,0,"[{""x"":0.5902902261904237,""y"":0.5613418206797953,""t"":172991},{""x"":0.5898990581046561,""y"":0.5609022148679824,""t"":173052},{""x"":0.5896183981748897,""y"":0.5605859447646205,""t"":173101},{""x"":0.5894304469593304,""y"":0.560373264965122,""t"":173152},{""x"":0.5893183892530213,""y"":0.5602454923388783,""t"":173201},{""x"":0.589266802928303,""y"":0.5601854684773084,""t"":173251},{""x"":0.5892619055587254,""y"":0.5601778406773227,""t"":173298},{""x"":0.589291671508263,""y"":0.5602091978179982,""t"":173355},{""x"":0.589345848747865,""y"":0.5602680937235158,""t"":173404},{""x"":0.589415900976855,""y"":0.5603449865342304,""t"":173452},{""x"":0.5894948968927937,""y"":0.560432118471691,""t"":173501},{""x"":0.5905315758647802,""y"":0.561735052914168,""t"":173559},{""x"":0.5914244851438544,""y"":0.5628557333847135,""t"":173611},{""x"":0.5931300751960696,""y"":0.5650091409069863,""t"":173675},{""x"":0.5936041220498401,""y"":0.5665690883681662,""t"":173731},{""x"":0.5928693530231558,""y"":0.5673500374061314,""t"":173788},{""x"":0.5921966568379349,""y"":0.5679362046720534,""t"":173841},{""x"":0.5905059216321187,""y"":0.5678706593725148,""t"":173897},{""x"":0.5878291500685848,""y"":0.5670108354765026,""t"":173956},{""x"":0.5866620918913809,""y"":0.5676696557444766,""t"":174023},{""x"":0.5282051873926168,""y"":0.5141480223481867,""t"":174081},{""x"":0.47858377718914985,""y"":0.46860576309593294,""t"":174138},{""x"":0.4374520366068487,""y"":0.43075945258241083,""t"":174187},{""x"":0.40408186334807167,""y"":0.40009482984222355,""t"":174241},{""x"":0.37788009198815575,""y"":0.37618993526802524,""t"":174294},{""x"":0.35800902355469677,""y"":0.35801735606174695,""t"":174351},{""x"":0.3435993007042555,""y"":0.34479703208036955,""t"":174415},{""x"":0.3337926490154839,""y"":0.33575679157043775,""t"":174469},{""x"":0.327772992502861,""y"":0.33016089024661255,""t"":174524},{""x"":0.32478775291602285,""y"":0.3273296371992912,""t"":174580},{""x"":0.32416105782715654,""y"":0.3266516626053545,""t"":174635},{""x"":0.32530045171119987,""y"":0.32759026686753484,""t"":174684},{""x"":0.327698544475565,""y"":0.3296851485920616,""t"":174749},{""x"":0.3307945412442171,""y"":0.33255065239948317,""t"":174805},{""x"":0.3343987511941591,""y"":0.3358715168653481,""t"":174858},{""x"":0.3382353149247591,""y"":0.3396392847059957,""t"":174913},{""x"":0.3420913638021098,""y"":0.34338201873449037,""t"":174966},{""x"":0.3458089702854711,""y"":0.3469579342355056,""t"":175019},{""x"":0.3492770275719675,""y"":0.35026896686560066,""t"":175082},{""x"":0.35242339889492313,""y"":0.3532532164842521,""t"":175136},{""x"":0.3552075770491916,""y"":0.35587793532918355,""t"":175188},{""x"":0.3576140115304717,""y"":0.35813319596811455,""t"":175241},{""x"":0.3596461930235454,""y"":0.3600263120711288,""t"":175291},{""x"":0.3613215314721661,""y"":0.36157703609353303,""t"":175342},{""x"":0.3626670230280395,""y"":0.36281352086262947,""t"":175394},{""x"":0.3637156711412777,""y"":0.3637690051899941,""t"":175452},{""x"":0.36450360625738115,""y"":0.36447916537260017,""t"":175505},{""x"":0.36506783543271876,""y"":0.36498006327068705,""t"":175556},{""x"":0.3654445461922291,""y"":0.3653066161468078,""t"":175605},{""x"":0.36566788679312984,""y"":0.3654915123526084,""t"":175659},{""x"":0.3657691465486971,""y"":0.3655644991480533,""t"":175711.00000000006},{""x"":0.3657762639922458,""y"":0.36555197348223206,""t"":175769},{""x"":0.36571359656991903,""y"":0.3654768126613752,""t"":175822},{""x"":0.36560189254110304,""y"":0.3653583888304269,""t"":175875},{""x"":0.36545841327705997,""y"":0.36521271858535237,""t"":175934},{""x"":0.3652971617474939,""y"":0.3650527064192704,""t"":175984},{""x"":0.36512918034719266,""y"":0.3648884477950522,""t"":176037},{""x"":0.3649628881107741,""y"":0.3647275642268121,""t"":176100},{""x"":0.3648044336417111,""y"":0.36457554871234477,""t"":176151},{""x"":0.3646580456550668,""y"":0.36443610511678254,""t"":176199},{""x"":0.36452636786534615,""y"":0.36431146963971894,""t"":176256},{""x"":0.3644107690440663,""y"":0.3642027063142423,""t"":176307.00000000006},{""x"":0.3643116224571965,""y"":0.3641099716228263,""t"":176357},{""x"":0.3642285516215515,""y"":0.3640327458254261,""t"":176407},{""x"":0.3641606414552332,""y"":0.36397003054378946,""t"":176456},{""x"":0.3641066155108354,""y"":0.36392051360271627,""t"":176509.00000000006},{""x"":0.36406498114412034,""y"":0.3638827031647935,""t"":176560},{""x"":0.3640341452567968,""y"":0.36385503387911966,""t"":176622.00000000006},{""x"":0.36401250372767113,""y"":0.3638359481616784,""t"":176673},{""x"":0.3639985078741749,""y"":0.36382395589466143,""t"":176725},{""x"":0.3639907113219383,""y"":0.3638176758269933,""t"":176776},{""x"":0.36398780055254976,""y"":0.3638158618245019,""t"":176829},{""x"":0.3639886121906457,""y"":0.36381741689460123,""t"":176879},{""x"":0.3639921398158528,""y"":0.3638213976293783,""t"":176933},{""x"":0.3639975327712291,""y"":0.3638270113987458,""t"":176985.00000000006},{""x"":0.36400408911015475,""y"":0.3638336083024056,""t"":177035},{""x"":0.3640112444953356,""y"":0.36384066957135003,""t"":177088},{""x"":0.36401855854932474,""y"":0.3638477938078378,""t"":177142},{""x"":0.3640256998645421,""y"":0.363854682174927,""t"":177192},{""x"":0.3640324306177383,""y"":0.3638611233974805,""t"":177255},{""x"":0.3640385915022086,""y"":0.36386697921844674,""t"":177303},{""x"":0.3640440874917788,""y"":0.3638721707676716,""t"":177357},{""x"":0.3640488747830867,""y"":0.36387666614465686,""t"":177409},{""x"":0.3640529491252866,""y"":0.3638804693896798,""t"":177456},{""x"":0.364056335636584,""y"":0.3638836109170112,""t"":177522},{""x"":0.36405908012206234,""y"":0.363886139406728,""t"":177573},{""x"":0.36406124184397465,""y"":0.3638881150947181,""t"":177627},{""x"":0.3640628876508909,""y"":0.3638896043608748,""t"":177683},{""x"":0.3640640873427313,""y"":0.3638906754901973,""t"":177733},{""x"":0.3640649101319226,""y"":0.36389139546781707,""t"":177782},{""x"":0.36406542205404635,""y"":0.36389182766436884,""t"":177838},{""x"":0.36406568418209895,""y"":0.36389203027041594,""t"":177891},{""x"":0.3640657515048095,""y"":0.3638920553459304,""t"":177941},{""x"":0.36406567233967163,""y"":0.363891948361525,""t"":177998},{""x"":0.36406548816400247,""y"":0.36389174812091446,""t"":178048},{""x"":0.3640652337613171,""y"":0.3638914869679016,""t"":178100},{""x"":0.36406493759468966,""y"":0.363891191195217,""t"":178148},{""x"":0.3640646223328956,""y"":0.3638908815861785,""t"":178205}]","""","""","""","""","""","2021-01-17 11:01:37",,"Mozilla/5.0 (Macintosh; Intel Mac OS X 10_15_6) AppleWebKit/605.1.15 (KHTML, like Gecko) Version/14.0.2 Safari/605.1.15",Macintosh,Safari,14.0.2,"OS X",10_15_6
9,1,null,"""",null,html-keyboard-response,35,266053,0.0-15.0-2.0-0.9,299,0,0,"FaceTime HD-Kamera (integriert)",29.969999313354492,480,640,"""","""","""","""","""","""","""","""","""","""","""","""","""","""","""","2021-01-17 11:01:37",,"Mozilla/5.0 (Macintosh; Intel Mac OS X 10_15_6) AppleWebKit/605.1.15 (KHTML, like Gecko) Version/14.0.2 Safari/605.1.15",Macintosh,Safari,14.0.2,"OS X",10_15_6
9,1,"""","""","""",eyetracking-calibration,36,272298,0.0-15.0-2.0-1.9,299,0,0,"FaceTime HD-Kamera (integriert)",29.969999313354492,480,640,"""",1920,1080,"""",0,"""",0.2,0.2,0,"[{""x"":0.36406430546849583,""y"":0.36389057403293945,""t"":179764},{""x"":0.36406399997930167,""y"":0.36389028018677816,""t"":179826},{""x"":0.36406371499565154,""y"":0.3638900081062691,""t"":179877},{""x"":0.3640634564455313,""y"":0.36388976287820113,""t"":179927},{""x"":0.3640632276577694,""y"":0.3638895471937661,""t"":179976},{""x"":0.36406302991037254,""y"":0.36388936186888965,""t"":180025},{""x"":0.3640628629166287,""y"":0.36388920630269994,""t"":180079},{""x"":0.3640627252459988,""y"":0.3638890788721555,""t"":180133},{""x"":0.364062614680183,""y"":0.36388897726390074,""t"":180183},{""x"":0.3640625285072175,""y"":0.36388889874662506,""t"":180230},{""x"":0.364062463758163,""y"":0.36388884038870345,""t"":180280},{""x"":0.3640624173920309,""y"":0.36388879922681394,""t"":180326},{""x"":0.3640623864351647,""y"":0.3638887723916796,""t"":180378},{""x"":0.3640623680814733,""y"":0.36388875719717323,""t"":180442},{""x"":0.3631081487260545,""y"":0.36340407257853286,""t"":180496},{""x"":0.36147910645748277,""y"":0.36226504475039156,""t"":180557.00000000006},{""x"":0.3594288864746346,""y"":0.36057798364925775,""t"":180615},{""x"":0.3570457674182778,""y"":0.35795841681011115,""t"":180675},{""x"":0.3546807486707504,""y"":0.3543284010158781,""t"":180743},{""x"":0.3522245834693217,""y"":0.35011842139432225,""t"":180799},{""x"":0.3499885355160896,""y"":0.3452212984167055,""t"":180856},{""x"":0.34782601565825516,""y"":0.34027545847275176,""t"":180915},{""x"":0.34615050797303826,""y"":0.3363122392223684,""t"":180969},{""x"":0.3446283225877454,""y"":0.332262180867141,""t"":181024},{""x"":0.34501048172600507,""y"":0.3286464172801194,""t"":181093},{""x"":0.34755575079889284,""y"":0.3256635309021759,""t"":181151},{""x"":0.3528609552434052,""y"":0.32322940505981906,""t"":181213},{""x"":0.3575849823741632,""y"":0.31956381430185676,""t"":181272},{""x"":0.35885072232305254,""y"":0.31411374727708335,""t"":181334},{""x"":0.35682765682856643,""y"":0.30740091980491313,""t"":181388},{""x"":0.3520026029191321,""y"":0.2996549063243812,""t"":181446},{""x"":0.344982332507001,""y"":0.29132848340349715,""t"":181515},{""x"":0.3363224551343103,""y"":0.2833003035958502,""t"":181577},{""x"":0.32638247204309284,""y"":0.27534796762213554,""t"":181635},{""x"":0.31357010617662606,""y"":0.26702524127309246,""t"":181695},{""x"":0.2989883564244817,""y"":0.25867098442946795,""t"":181748},{""x"":0.2871484458159416,""y"":0.25226969066072635,""t"":181800},{""x"":0.27289464565884664,""y"":0.24586754679166706,""t"":181864},{""x"":0.2592705370568997,""y"":0.24140034538957167,""t"":181922},{""x"":0.24957194207625852,""y"":0.23954476524473398,""t"":181977},{""x"":0.24234612202827407,""y"":0.23866260939547565,""t"":182032},{""x"":0.238322795948717,""y"":0.2402304448291488,""t"":182090},{""x"":0.23712469836415956,""y"":0.2435594484814463,""t"":182145},{""x"":0.23810934175476908,""y"":0.24827692153374184,""t"":182210},{""x"":0.24069524313593035,""y"":0.2535680021280728,""t"":182270},{""x"":0.24355110844822275,""y"":0.25825029184472126,""t"":182325},{""x"":0.24731098892709863,""y"":0.2630245709174573,""t"":182379},{""x"":0.25048627475120244,""y"":0.2665759389056667,""t"":182435},{""x"":0.25413272283659966,""y"":0.26997967405165585,""t"":182490},{""x"":0.2574041292415138,""y"":0.27272823097167126,""t"":182546},{""x"":0.26054162754028043,""y"":0.2751264921973727,""t"":182602},{""x"":0.26281562109080164,""y"":0.2767231073206583,""t"":182657},{""x"":0.26470900679443665,""y"":0.2778702511355402,""t"":182708},{""x"":0.2663826746202314,""y"":0.2786400971326518,""t"":182766},{""x"":0.26798475582981673,""y"":0.2793432219409616,""t"":182833},{""x"":0.26923914375895236,""y"":0.279763579283688,""t"":182885},{""x"":0.27018712346266366,""y"":0.2802008560682415,""t"":182938},{""x"":0.2704623709738431,""y"":0.2799429728538822,""t"":182998},{""x"":0.2713949649492101,""y"":0.2803203937905806,""t"":183051},{""x"":0.2720818574408094,""y"":0.2805349589955715,""t"":183104},{""x"":0.273105394690624,""y"":0.2811054668253508,""t"":183161},{""x"":0.27482841861214075,""y"":0.2824742201312156,""t"":183223.00000000006},{""x"":0.27741669395509966,""y"":0.2847671779455122,""t"":183275},{""x"":0.2789548544296231,""y"":0.285896346923563,""t"":183331.00000000006},{""x"":0.28134631750119526,""y"":0.28795019086217405,""t"":183387},{""x"":0.28323190796186437,""y"":0.28957708807819554,""t"":183442},{""x"":0.28603245259179316,""y"":0.29203599914491324,""t"":183492},{""x"":0.28755917425023736,""y"":0.2934988214945254,""t"":183552},{""x"":0.2901627993553327,""y"":0.2960336010543989,""t"":183603},{""x"":0.2906864002032652,""y"":0.296571429722721,""t"":183658.00000000006},{""x"":0.2895628725115864,""y"":0.29539346173594955,""t"":183711.00000000006},{""x"":0.2897877364959171,""y"":0.29568334015444125,""t"":183759.00000000006},{""x"":0.29134190934857085,""y"":0.2970232473483574,""t"":183811},{""x"":0.2910439953965783,""y"":0.2966030129999671,""t"":183868},{""x"":0.2913445303297742,""y"":0.29686083701997384,""t"":183923},{""x"":0.2914966053534282,""y"":0.2969921096307808,""t"":183976},{""x"":0.29153304912541805,""y"":0.29702474992343775,""t"":184025},{""x"":0.2908011017082642,""y"":0.2962562610134644,""t"":184079},{""x"":0.29010924857376535,""y"":0.2955437028826082,""t"":184131},{""x"":0.289474416378067,""y"":0.2949006779633039,""t"":184184},{""x"":0.28890684169828923,""y"":0.2943344727441719,""t"":184243},{""x"":0.2884114162943388,""y"":0.29384742203235226,""t"":184293},{""x"":0.2879888921126106,""y"":0.29343811240354123,""t"":184344},{""x"":0.2869553556728099,""y"":0.2926177406116143,""t"":184401},{""x"":0.28609005517118297,""y"":0.29193769020899146,""t"":184451},{""x"":0.2853832534860991,""y"":0.2913881879858398,""t"":184502},{""x"":0.2848214801344907,""y"":0.290956844590809,""t"":184557.00000000006},{""x"":0.2850706215801867,""y"":0.2911145088950878,""t"":184622.00000000006},{""x"":0.286829672451174,""y"":0.2927435254066207,""t"":184687},{""x"":0.28836132363010475,""y"":0.2941603879842625,""t"":184739},{""x"":0.28966438731291555,""y"":0.29536446805143646,""t"":184792},{""x"":0.29265546830892103,""y"":0.29806010998092924,""t"":184843},{""x"":0.29515479196508726,""y"":0.30031060254144076,""t"":184892},{""x"":0.2962377968250964,""y"":0.3014162408268101,""t"":184947},{""x"":0.29704196277780454,""y"":0.3022497690054219,""t"":185000},{""x"":0.297608397628931,""y"":0.30284937005734275,""t"":185060},{""x"":0.2962047660354209,""y"":0.30155612958863715,""t"":185114},{""x"":0.2942244937328635,""y"":0.299629184670068,""t"":185169},{""x"":0.29247535519619766,""y"":0.29792768917693213,""t"":185224},{""x"":0.29096618065514396,""y"":0.29646007283240916,""t"":185274},{""x"":0.2896939786808518,""y"":0.29522328968654793,""t"":185329},{""x"":0.2886471487867471,""y"":0.2942059423244197,""t"":185384.00000000006},{""x"":0.28712661510190435,""y"":0.2929062407617651,""t"":185441},{""x"":0.28589498984940515,""y"":0.2918608796705047,""t"":185495},{""x"":0.2849254713651931,""y"":0.2910447224817514,""t"":185545.00000000006},{""x"":0.2841878845457616,""y"":0.29043012743532987,""t"":185596},{""x"":0.28365075970402714,""y"":0.2899886987874976,""t"":185644},{""x"":0.2826013393323717,""y"":0.2889655916336346,""t"":185705},{""x"":0.2805668216219747,""y"":0.2872011640113937,""t"":185768},{""x"":0.27797251801162365,""y"":0.2848125792785697,""t"":185834},{""x"":0.2758774747701985,""y"":0.28288043066022645,""t"":185886},{""x"":0.2742340556309484,""y"":0.28136183408603826,""t"":185953}]","""","""","""","""","""","2021-01-17 11:01:37",,"Mozilla/5.0 (Macintosh; Intel Mac OS X 10_15_6) AppleWebKit/605.1.15 (KHTML, like Gecko) Version/14.0.2 Safari/605.1.15",Macintosh,Safari,14.0.2,"OS X",10_15_6
9,1,null,"""",null,html-keyboard-response,37,273807,0.0-15.0-2.0-0.10,299,0,0,"FaceTime HD-Kamera (integriert)",29.969999313354492,480,640,"""","""","""","""","""","""","""","""","""","""","""","""","""","""","""","2021-01-17 11:01:37",,"Mozilla/5.0 (Macintosh; Intel Mac OS X 10_15_6) AppleWebKit/605.1.15 (KHTML, like Gecko) Version/14.0.2 Safari/605.1.15",Macintosh,Safari,14.0.2,"OS X",10_15_6
