run_id,condition,rt,stimulus,button_pressed,window_width,window_height,trial_type,trial_index,time_elapsed,internal_node_id,subject,chinFirst,choiceTask_amountLeftFirst,webcam_label,webcam_fps,webcam_aspectRatio,webcam_height,webcam_width,bonusAmount,bonusDelay,responses,key_press,success,x_pos,y_pos,chin,task_nr,eyeData,trial_duration,option_topLeft,option_bottomLeft,option_topRight,option_bottomRight,recorded_at,ip,user_agent,device,browser,browser_version,platform,platform_version
21,1,7077.365000004647,"<div style=""position: fixed; display: inline-block; top: 20%; right: 20%; text-align: right;""><img src=""fu_logo.PNG"" alt=""[FU Berlin Logo]"" style=""width: 25%;""></div><div><br><br><p><strong>Welcome, dear participant! </strong></p><p>Thank you for your interest in and your support for our research.<br> This study is run by researchers at Freie Universität Berlin. </p></div>",0,1280,626,html-button-response,0,7083,0.0-0.0,811,0,0,"Integrierte iSight-Kamera (05ac:8507)",30.000030517578125,0.0020833333333333333,480,640,$4.5,"30 days","""","""","""","""","""","""","""","""","""","""","""","""","""","2021-01-14 11:42:20",,"Mozilla/5.0 (Macintosh; Intel Mac OS X 10_13_6) AppleWebKit/537.36 (KHTML, like Gecko) Chrome/87.0.4280.141 Safari/537.36",Macintosh,Chrome,87.0.4280.141,"OS X",10_13_6
21,1,7955.235000001267,"""","""","""","""",survey-html-form,1,15045,0.0-1.0,811,0,0,"Integrierte iSight-Kamera (05ac:8507)",30.000030517578125,0.0020833333333333333,480,640,$4.5,"30 days","{""prolificID"":""Livaila22""}","""","""","""","""","""","""","""","""","""","""","""","""","2021-01-14 11:42:20",,"Mozilla/5.0 (Macintosh; Intel Mac OS X 10_13_6) AppleWebKit/537.36 (KHTML, like Gecko) Chrome/87.0.4280.141 Safari/537.36",Macintosh,Chrome,87.0.4280.141,"OS X",10_13_6
21,1,1261.0099999947124,"<p>Please, use only <strong>one monitor</strong> for this study.<br>If necessary, switch off the other monitors.</p>",0,"""","""",html-button-response,2,16309,0.0-2.0,811,0,0,"Integrierte iSight-Kamera (05ac:8507)",30.000030517578125,0.0020833333333333333,480,640,$4.5,"30 days","""","""","""","""","""","""","""","""","""","""","""","""","""","2021-01-14 11:42:20",,"Mozilla/5.0 (Macintosh; Intel Mac OS X 10_13_6) AppleWebKit/537.36 (KHTML, like Gecko) Chrome/87.0.4280.141 Safari/537.36",Macintosh,Chrome,87.0.4280.141,"OS X",10_13_6
21,1,711.29999999539,"<p><strong>Please turn your mobile phone into Airplane Mode and close all CPU- or data-intensive programs and websites!</strong><br> (e.g. running Youtube Videos or Torrents)</p>",0,"""","""",html-button-response,3,17023,0.0-3.0,811,0,0,"Integrierte iSight-Kamera (05ac:8507)",30.000030517578125,0.0020833333333333333,480,640,$4.5,"30 days","""","""","""","""","""","""","""","""","""","""","""","""","""","2021-01-14 11:42:20",,"Mozilla/5.0 (Macintosh; Intel Mac OS X 10_13_6) AppleWebKit/537.36 (KHTML, like Gecko) Chrome/87.0.4280.141 Safari/537.36",Macintosh,Chrome,87.0.4280.141,"OS X",10_13_6
21,1,null,"""","""","""","""",html-keyboard-response,4,17156,0.0-4.0,811,0,0,"Integrierte iSight-Kamera (05ac:8507)",30.000030517578125,0.0020833333333333333,480,640,$4.5,"30 days","""",null,"""","""","""","""","""","""","""","""","""","""","""","2021-01-14 11:42:20",,"Mozilla/5.0 (Macintosh; Intel Mac OS X 10_13_6) AppleWebKit/537.36 (KHTML, like Gecko) Chrome/87.0.4280.141 Safari/537.36",Macintosh,Chrome,87.0.4280.141,"OS X",10_13_6
21,1,null,"""","""","""","""",html-keyboard-response,5,17263,0.0-5.0,811,0,0,"Integrierte iSight-Kamera (05ac:8507)",30.000030517578125,0.0020833333333333333,480,640,$4.5,"30 days","""",null,"""","""","""","""","""","""","""","""","""","""","""","2021-01-14 11:42:20",,"Mozilla/5.0 (Macintosh; Intel Mac OS X 10_13_6) AppleWebKit/537.36 (KHTML, like Gecko) Chrome/87.0.4280.141 Safari/537.36",Macintosh,Chrome,87.0.4280.141,"OS X",10_13_6
21,1,8400.024999995367,"<div style=""width: 45%; text-align: left; margin: auto;""><p><strong>For a preliminary adjustment, please consider the following instructions: </strong></p><ol><li>Sit at a table and make sure that you could later rest your elbows on it. </li><li>Sit towards a window or lamp so that there are no shadows on your face. You might additionally turn on a desk lamp for that. </li></ol></div><img src=""lightInstruct.PNG"" alt=""[Eye-Tracking-Instructions]"" style=""width: 70%;"">",0,"""","""",html-button-response,6,25664,0.0-6.0,811,0,0,"Integrierte iSight-Kamera (05ac:8507)",30.000030517578125,0.0020833333333333333,480,640,$4.5,"30 days","""","""","""","""","""","""","""","""","""","""","""","""","""","2021-01-14 11:42:20",,"Mozilla/5.0 (Macintosh; Intel Mac OS X 10_13_6) AppleWebKit/537.36 (KHTML, like Gecko) Chrome/87.0.4280.141 Safari/537.36",Macintosh,Chrome,87.0.4280.141,"OS X",10_13_6
21,1,3939.539999999397,"<div style=""width: 45%; text-align: left; margin: auto;""><ol start='3'><li>Check the video and stay in the highlighted rectangle so that it becomes green. </li><li>Try as much as possible to follow the instructions on these pictures and avoid moving your head. If you move too much, the calibration can fail and you might not be able to finish the study. </li><li><strong>If necessary, adjust your laptop, monitor, webcam, or chair. </strong></li></ol></div><img src=""ETInstructions.PNG"" alt=""[Eye-Tracking-Instructions]"" style=""width: 70%;"">",0,"""","""",html-button-response,7,29609,0.0-7.0,811,0,0,"Integrierte iSight-Kamera (05ac:8507)",30.000030517578125,0.0020833333333333333,480,640,$4.5,"30 days","""","""","""","""","""","""","""","""","""","""","""","""","""","2021-01-14 11:42:20",,"Mozilla/5.0 (Macintosh; Intel Mac OS X 10_13_6) AppleWebKit/537.36 (KHTML, like Gecko) Chrome/87.0.4280.141 Safari/537.36",Macintosh,Chrome,87.0.4280.141,"OS X",10_13_6
21,1,"""","""","""",1280,626,fullscreen,8,32498,0.0-8.0,811,0,0,"Integrierte iSight-Kamera (05ac:8507)",30.000030517578125,0.0020833333333333333,480,640,$4.5,"30 days","""","""",true,"""","""","""","""","""","""","""","""","""","""","2021-01-14 11:42:20",,"Mozilla/5.0 (Macintosh; Intel Mac OS X 10_13_6) AppleWebKit/537.36 (KHTML, like Gecko) Chrome/87.0.4280.141 Safari/537.36",Macintosh,Chrome,87.0.4280.141,"OS X",10_13_6
21,1,880.7750000050873,"<div style=""width: 45%; margin: auto; text-align: justify;""><p>For the next task, please do <strong>not</strong> rest your head on your arm but keep your head in a natural position. Get sure that you stay in the rectangle in the video stream while doing that. </p><p>However, in order to make this measurement as accurate as possible, please keep your head at the same position at all time so that you <strong>only move your eyes</strong> when you look at the screen. </p></div><p style=""text-align: center;"">Press Space to continue </p>","""","""","""",html-keyboard-response,9,33390,0.0-9.0,811,0,0,"Integrierte iSight-Kamera (05ac:8507)",30.000030517578125,0.0020833333333333333,480,640,$4.5,"30 days","""",32,"""","""","""","""","""","""","""","""","""","""","""","2021-01-14 11:42:20",,"Mozilla/5.0 (Macintosh; Intel Mac OS X 10_13_6) AppleWebKit/537.36 (KHTML, like Gecko) Chrome/87.0.4280.141 Safari/537.36",Macintosh,Chrome,87.0.4280.141,"OS X",10_13_6
21,1,1418.2700000019395,"<p><strong>Can you stay in that pose for a while?</strong></p><p>If not, then please adjust now in order to be comfortable.</p><br><p>Press Space to continue</p>","""","""","""",html-keyboard-response,10,34811,0.0-10.0,811,0,0,"Integrierte iSight-Kamera (05ac:8507)",30.000030517578125,0.0020833333333333333,480,640,$4.5,"30 days","""",32,"""","""","""","""","""","""","""","""","""","""","""","2021-01-14 11:42:20",,"Mozilla/5.0 (Macintosh; Intel Mac OS X 10_13_6) AppleWebKit/537.36 (KHTML, like Gecko) Chrome/87.0.4280.141 Safari/537.36",Macintosh,Chrome,87.0.4280.141,"OS X",10_13_6
21,1,2373.039999998582,"<div style=""position: fixed; top: 30%; left: 27.5%; width: 45%; margin: auto; text-align: justify;""><p>For calibration purposes, there will be buttons (39 in total) appearing one after another. <strong>Click 14x on each button</strong> until it turns green. Then the next button will appear. This will take around <strong>3 minutes. </strong></p><p>For an accurate measurement, please <strong><u>always</u></strong> follow the mouse cursor with your eyes. </p><br><p style=""text-align: center;"">Press Space to continue</p></div>","""","""","""",html-keyboard-response,11,37185,0.0-11.0,811,0,0,"Integrierte iSight-Kamera (05ac:8507)",30.000030517578125,0.0020833333333333333,480,640,$4.5,"30 days","""",32,"""","""","""","""","""","""","""","""","""","""","""","2021-01-14 11:42:20",,"Mozilla/5.0 (Macintosh; Intel Mac OS X 10_13_6) AppleWebKit/537.36 (KHTML, like Gecko) Chrome/87.0.4280.141 Safari/537.36",Macintosh,Chrome,87.0.4280.141,"OS X",10_13_6
21,1,null,"""","""","""","""",html-keyboard-response,12,37305,0.0-12.0-0.0,811,0,0,"Integrierte iSight-Kamera (05ac:8507)",30.000030517578125,0.0020833333333333333,480,640,$4.5,"30 days","""",null,"""","""","""","""","""","""","""","""","""","""","""","2021-01-14 11:42:20",,"Mozilla/5.0 (Macintosh; Intel Mac OS X 10_13_6) AppleWebKit/537.36 (KHTML, like Gecko) Chrome/87.0.4280.141 Safari/537.36",Macintosh,Chrome,87.0.4280.141,"OS X",10_13_6
21,1,null,"""","""","""","""",html-keyboard-response,13,37482,0.0-12.0-1.0,811,0,0,"Integrierte iSight-Kamera (05ac:8507)",30.000030517578125,0.0020833333333333333,480,640,$4.5,"30 days","""",null,"""","""","""","""","""","""","""","""","""","""","""","2021-01-14 11:42:20",,"Mozilla/5.0 (Macintosh; Intel Mac OS X 10_13_6) AppleWebKit/537.36 (KHTML, like Gecko) Chrome/87.0.4280.141 Safari/537.36",Macintosh,Chrome,87.0.4280.141,"OS X",10_13_6
21,1,null,"""","""","""","""",html-keyboard-response,14,39015,0.0-12.0-2.0-0.0,811,0,0,"Integrierte iSight-Kamera (05ac:8507)",30.000030517578125,0.0020833333333333333,480,640,$4.5,"30 days","""",null,"""","""","""","""","""","""","""","""","""","""","""","2021-01-14 11:42:20",,"Mozilla/5.0 (Macintosh; Intel Mac OS X 10_13_6) AppleWebKit/537.36 (KHTML, like Gecko) Chrome/87.0.4280.141 Safari/537.36",Macintosh,Chrome,87.0.4280.141,"OS X",10_13_6
21,1,"""","""","""",1280,800,eyetracking-calibration,15,42264,0.0-12.0-2.0-1.0,811,0,0,"Integrierte iSight-Kamera (05ac:8507)",30.000030517578125,0.0020833333333333333,480,640,$4.5,"30 days","""","""","""",0.5,0.5,0,0,"{""history"":[{""relative-x"":0.51484375,""relative-y"":0.55,""elapse-time"":155.5800000060117},{""relative-x"":0.50078125,""relative-y"":0.52125,""elapse-time"":238.10000000230502},{""relative-x"":0.51640625,""relative-y"":0.52875,""elapse-time"":298.6300000047777},{""relative-x"":0.503125,""relative-y"":0.52875,""elapse-time"":356.7750000001979},{""relative-x"":0.48359375,""relative-y"":0.52375,""elapse-time"":402.9800000062096},{""relative-x"":0.4703125,""relative-y"":0.52375,""elapse-time"":464.8100000049453},{""relative-x"":0.44921875,""relative-y"":0.51625,""elapse-time"":528.8500000024214},{""relative-x"":0.46328125,""relative-y"":0.54125,""elapse-time"":586.0950000060257},{""relative-x"":0.509375,""relative-y"":0.46125,""elapse-time"":647.5900000004913},{""relative-x"":0.49140625,""relative-y"":0.53125,""elapse-time"":699.0150000056019},{""relative-x"":0.50546875,""relative-y"":0.53875,""elapse-time"":749.2000000056578},{""relative-x"":0.50703125,""relative-y"":0.5175,""elapse-time"":807.6250000012806},{""relative-x"":0.50625,""relative-y"":0.4925,""elapse-time"":868.1550000037532},{""relative-x"":0.50546875,""relative-y"":0.5325,""elapse-time"":941.9350000025588},{""relative-x"":0.49921875,""relative-y"":0.53,""elapse-time"":1006.984999999986},{""relative-x"":0.50859375,""relative-y"":0.52875,""elapse-time"":1068.1949999998324},{""relative-x"":0.51328125,""relative-y"":0.5325,""elapse-time"":1136.3450000062585},{""relative-x"":0.52265625,""relative-y"":0.52625,""elapse-time"":1195.2600000004168},{""relative-x"":0.52109375,""relative-y"":0.5475,""elapse-time"":1276.6300000002957},{""relative-x"":0.51796875,""relative-y"":0.57375,""elapse-time"":1331.8800000051851},{""relative-x"":0.521875,""relative-y"":0.5525,""elapse-time"":1396.5000000025611},{""relative-x"":0.521875,""relative-y"":0.5525,""elapse-time"":1457.2299999999814},{""relative-x"":0.5171875,""relative-y"":0.5575,""elapse-time"":1521.7400000037742},{""relative-x"":0.5109375,""relative-y"":0.55625,""elapse-time"":1584.9850000013248},{""relative-x"":0.52109375,""relative-y"":0.55125,""elapse-time"":1646.325000001525},{""relative-x"":0.52734375,""relative-y"":0.53625,""elapse-time"":1711.4849999998114},{""relative-x"":0.515625,""relative-y"":0.4925,""elapse-time"":1764.3650000027264},{""relative-x"":0.4859375,""relative-y"":0.56375,""elapse-time"":1825.2300000021933},{""relative-x"":0.52578125,""relative-y"":0.52375,""elapse-time"":1883.7249999996857},{""relative-x"":0.515625,""relative-y"":0.53625,""elapse-time"":1945.7949999996345},{""relative-x"":0.49453125,""relative-y"":0.5725,""elapse-time"":2004.1200000050594},{""relative-x"":0.48515625,""relative-y"":0.525,""elapse-time"":2060.4500000044936},{""relative-x"":0.52265625,""relative-y"":0.5625,""elapse-time"":2124.740000006568},{""relative-x"":0.5328125,""relative-y"":0.5925,""elapse-time"":2179.165000001376},{""relative-x"":0.49375,""relative-y"":0.5325,""elapse-time"":2239.6350000053644},{""relative-x"":0.4984375,""relative-y"":0.52,""elapse-time"":2295.940000003611},{""relative-x"":0.521875,""relative-y"":0.54375,""elapse-time"":2346.9350000013947},{""relative-x"":0.51640625,""relative-y"":0.50375,""elapse-time"":2407.8200000003562},{""relative-x"":0.50859375,""relative-y"":0.535,""elapse-time"":2464.8700000034296},{""relative-x"":0.51875,""relative-y"":0.52875,""elapse-time"":2530.285000000731},{""relative-x"":0.50390625,""relative-y"":0.53,""elapse-time"":2589.3600000053993},{""relative-x"":0.503125,""relative-y"":0.505,""elapse-time"":2649.025000006077},{""relative-x"":0.5125,""relative-y"":0.53,""elapse-time"":2706.9350000019767},{""relative-x"":0.49765625,""relative-y"":0.535,""elapse-time"":2764.419999999518},{""relative-x"":0.4984375,""relative-y"":0.5375,""elapse-time"":2820.145000005141},{""relative-x"":0.50546875,""relative-y"":0.51125,""elapse-time"":2892.5400000007357},{""relative-x"":0.51015625,""relative-y"":0.51,""elapse-time"":2962.3000000065076},{""relative-x"":0.5046875,""relative-y"":0.5175,""elapse-time"":3023.62500000163},{""relative-x"":0.490625,""relative-y"":0.565,""elapse-time"":3098.5950000031153},{""relative-x"":0.50234375,""relative-y"":0.53125,""elapse-time"":3161.1050000065006}]}","""","""","""","""","""","2021-01-14 11:42:20",,"Mozilla/5.0 (Macintosh; Intel Mac OS X 10_13_6) AppleWebKit/537.36 (KHTML, like Gecko) Chrome/87.0.4280.141 Safari/537.36",Macintosh,Chrome,87.0.4280.141,"OS X",10_13_6
21,1,null,"""","""","""","""",html-keyboard-response,16,43803,0.0-12.0-2.0-0.1,811,0,0,"Integrierte iSight-Kamera (05ac:8507)",30.000030517578125,0.0020833333333333333,480,640,$4.5,"30 days","""",null,"""","""","""","""","""","""","""","""","""","""","""","2021-01-14 11:42:20",,"Mozilla/5.0 (Macintosh; Intel Mac OS X 10_13_6) AppleWebKit/537.36 (KHTML, like Gecko) Chrome/87.0.4280.141 Safari/537.36",Macintosh,Chrome,87.0.4280.141,"OS X",10_13_6
21,1,"""","""","""",1280,800,eyetracking-calibration,17,47703,0.0-12.0-2.0-1.1,811,0,0,"Integrierte iSight-Kamera (05ac:8507)",30.000030517578125,0.0020833333333333333,480,640,$4.5,"30 days","""","""","""",0.2,0.8,0,0,"{""history"":[{""relative-x"":0.490625,""relative-y"":0.46125,""elapse-time"":67.71999999909895},{""relative-x"":0.509375,""relative-y"":0.54125,""elapse-time"":124.03500000073109},{""relative-x"":0.52578125,""relative-y"":0.535,""elapse-time"":177.17999999877065},{""relative-x"":0.5109375,""relative-y"":0.5325,""elapse-time"":226.51000000041677},{""relative-x"":0.49453125,""relative-y"":0.60625,""elapse-time"":285.4200000001583},{""relative-x"":0.509375,""relative-y"":0.565,""elapse-time"":340.17499999754364},{""relative-x"":0.49765625,""relative-y"":0.5525,""elapse-time"":394.11500000278465},{""relative-x"":0.509375,""relative-y"":0.59375,""elapse-time"":452.0750000010594},{""relative-x"":0.4890625,""relative-y"":0.53875,""elapse-time"":509.23499999771593},{""relative-x"":0.5046875,""relative-y"":0.56,""elapse-time"":569.3350000001374},{""relative-x"":0.50234375,""relative-y"":0.50875,""elapse-time"":636.8250000014086},{""relative-x"":0.45546875,""relative-y"":0.5475,""elapse-time"":698.87000000017},{""relative-x"":0.35546875,""relative-y"":0.67125,""elapse-time"":768.0550000004587},{""relative-x"":0.40703125,""relative-y"":0.625,""elapse-time"":839.6450000000186},{""relative-x"":0.40546875,""relative-y"":0.635,""elapse-time"":916.720000001078},{""relative-x"":0.30390625,""relative-y"":0.72875,""elapse-time"":978.14500000095},{""relative-x"":0.50078125,""relative-y"":0.54875,""elapse-time"":1054.759999999078},{""relative-x"":0.38046875,""relative-y"":0.6775,""elapse-time"":1121.7800000013085},{""relative-x"":0.31796875,""relative-y"":0.76125,""elapse-time"":1178.0149999976857},{""relative-x"":0.39140625,""relative-y"":0.68,""elapse-time"":1241.760000004433},{""relative-x"":0.38203125,""relative-y"":0.6825,""elapse-time"":1339.7000000040862},{""relative-x"":0.3109375,""relative-y"":0.71875,""elapse-time"":1402.0200000013574},{""relative-x"":0.41875,""relative-y"":0.63125,""elapse-time"":1473.2050000020536},{""relative-x"":0.31875,""relative-y"":0.75,""elapse-time"":1532.3150000040187},{""relative-x"":0.2359375,""relative-y"":0.805,""elapse-time"":1588.145000001532},{""relative-x"":0.46484375,""relative-y"":0.5375,""elapse-time"":1652.5299999993877},{""relative-x"":0.57265625,""relative-y"":0.455,""elapse-time"":1717.4050000030547},{""relative-x"":0.5,""relative-y"":0.5075,""elapse-time"":1778.3649999983027},{""relative-x"":0.35546875,""relative-y"":0.67375,""elapse-time"":1837.005000001227},{""relative-x"":0.37109375,""relative-y"":0.61875,""elapse-time"":1900.7350000028964},{""relative-x"":0.221875,""relative-y"":0.855,""elapse-time"":1971.095000000787},{""relative-x"":0.29296875,""relative-y"":0.7725,""elapse-time"":2034.1950000001816},{""relative-x"":0.43515625,""relative-y"":0.63,""elapse-time"":2087.039999998524},{""relative-x"":0.26796875,""relative-y"":0.81,""elapse-time"":2154.7199999986333},{""relative-x"":0.31953125,""relative-y"":0.78375,""elapse-time"":2222.200000003795},{""relative-x"":0.32421875,""relative-y"":0.73125,""elapse-time"":2284.879999999248},{""relative-x"":0.3765625,""relative-y"":0.65625,""elapse-time"":2358.1649999978254},{""relative-x"":0.44140625,""relative-y"":0.6225,""elapse-time"":2436.3799999991897},{""relative-x"":0.459375,""relative-y"":0.58625,""elapse-time"":2500.4699999990407},{""relative-x"":0.3078125,""relative-y"":0.77,""elapse-time"":2583.5650000008172},{""relative-x"":0.29453125,""relative-y"":0.73,""elapse-time"":2659.5200000010664},{""relative-x"":0.13203125,""relative-y"":0.92375,""elapse-time"":2735.115000003134},{""relative-x"":0.41328125,""relative-y"":0.675,""elapse-time"":2803.5299999974086},{""relative-x"":0.3453125,""relative-y"":0.7125,""elapse-time"":2866.6900000025635},{""relative-x"":0.475,""relative-y"":0.5575,""elapse-time"":2927.609999998822},{""relative-x"":0.1234375,""relative-y"":0.8975,""elapse-time"":2992.324999999255},{""relative-x"":0.365625,""relative-y"":0.67875,""elapse-time"":3061.7399999973713},{""relative-x"":0.2953125,""relative-y"":0.74125,""elapse-time"":3125.6500000017695},{""relative-x"":0.29921875,""relative-y"":0.76375,""elapse-time"":3201.0149999987334},{""relative-x"":0.3375,""relative-y"":0.74625,""elapse-time"":3272.000000004482},{""relative-x"":0.31484375,""relative-y"":0.7675,""elapse-time"":3334.674999998242},{""relative-x"":0.2625,""relative-y"":0.82125,""elapse-time"":3401.0350000025937},{""relative-x"":0.09765625,""relative-y"":0.9475,""elapse-time"":3456.819999999425},{""relative-x"":0.14921875,""relative-y"":0.92625,""elapse-time"":3537.7000000007683},{""relative-x"":0.26796875,""relative-y"":0.785,""elapse-time"":3624.7000000003027},{""relative-x"":0.23828125,""relative-y"":0.8525,""elapse-time"":3702.3750000007567},{""relative-x"":0.28125,""relative-y"":0.79,""elapse-time"":3783.7650000001304},{""relative-x"":0.33828125,""relative-y"":0.7025,""elapse-time"":3874.72500000149}]}","""","""","""","""","""","2021-01-14 11:42:20",,"Mozilla/5.0 (Macintosh; Intel Mac OS X 10_13_6) AppleWebKit/537.36 (KHTML, like Gecko) Chrome/87.0.4280.141 Safari/537.36",Macintosh,Chrome,87.0.4280.141,"OS X",10_13_6
21,1,null,"""","""","""","""",html-keyboard-response,18,49214,0.0-12.0-2.0-0.2,811,0,0,"Integrierte iSight-Kamera (05ac:8507)",30.000030517578125,0.0020833333333333333,480,640,$4.5,"30 days","""",null,"""","""","""","""","""","""","""","""","""","""","""","2021-01-14 11:42:20",,"Mozilla/5.0 (Macintosh; Intel Mac OS X 10_13_6) AppleWebKit/537.36 (KHTML, like Gecko) Chrome/87.0.4280.141 Safari/537.36",Macintosh,Chrome,87.0.4280.141,"OS X",10_13_6
21,1,"""","""","""",1280,800,eyetracking-calibration,19,53183,0.0-12.0-2.0-1.2,811,0,0,"Integrierte iSight-Kamera (05ac:8507)",30.000030517578125,0.0020833333333333333,480,640,$4.5,"30 days","""","""","""",0.8,0.5,0,0,"{""history"":[{""relative-x"":0.325,""relative-y"":0.7875,""elapse-time"":90.10999999736669},{""relative-x"":0.303125,""relative-y"":0.805,""elapse-time"":259.48000000062166},{""relative-x"":0.20625,""relative-y"":0.90125,""elapse-time"":430.21999999473337},{""relative-x"":0.45078125,""relative-y"":0.68,""elapse-time"":538.4849999973085},{""relative-x"":0.32421875,""relative-y"":0.7025,""elapse-time"":703.1349999961094},{""relative-x"":0.084375,""relative-y"":1.01375,""elapse-time"":800.0150000007125},{""relative-x"":0.55078125,""relative-y"":0.63375,""elapse-time"":905.6449999989127},{""relative-x"":0.55625,""relative-y"":0.6475,""elapse-time"":999.165000001085},{""relative-x"":0.42421875,""relative-y"":0.6875,""elapse-time"":1088.4549999973387},{""relative-x"":0.36640625,""relative-y"":0.825,""elapse-time"":1223.1150000006892},{""relative-x"":0.29453125,""relative-y"":0.7825,""elapse-time"":1317.380000000412},{""relative-x"":0.43359375,""relative-y"":0.66,""elapse-time"":1390.800000001036},{""relative-x"":0.959375,""relative-y"":0.32125,""elapse-time"":1464.1300000002957},{""relative-x"":0.59921875,""relative-y"":0.4575,""elapse-time"":1530.2899999951478},{""relative-x"":0.6328125,""relative-y"":0.46,""elapse-time"":1592.8399999975227},{""relative-x"":0.71484375,""relative-y"":0.4375,""elapse-time"":1648.5049999973853},{""relative-x"":0.92421875,""relative-y"":0.3025,""elapse-time"":1711.8649999974878},{""relative-x"":0.74296875,""relative-y"":0.43625,""elapse-time"":1811.1599999974715},{""relative-x"":0.4203125,""relative-y"":0.64125,""elapse-time"":1877.9349999967963},{""relative-x"":0.99140625,""relative-y"":0.305,""elapse-time"":1944.774999996298},{""relative-x"":0.83046875,""relative-y"":0.47875,""elapse-time"":2011.6500000003725},{""relative-x"":0.74453125,""relative-y"":0.62,""elapse-time"":2078.5699999978533},{""relative-x"":0.82421875,""relative-y"":0.61625,""elapse-time"":2147.754999998142},{""relative-x"":0.9609375,""relative-y"":0.41375,""elapse-time"":2213.2700000001932},{""relative-x"":0.7515625,""relative-y"":0.5325,""elapse-time"":2280.5200000002515},{""relative-x"":0.721875,""relative-y"":0.425,""elapse-time"":2339.5649999947636},{""relative-x"":0.79765625,""relative-y"":0.50125,""elapse-time"":2415.4799999960233},{""relative-x"":0.63125,""relative-y"":0.64625,""elapse-time"":2485.6799999979557},{""relative-x"":0.565625,""relative-y"":0.61,""elapse-time"":2550.2899999992223},{""relative-x"":0.81953125,""relative-y"":0.485,""elapse-time"":2623.6949999947683},{""relative-x"":0.728125,""relative-y"":0.57625,""elapse-time"":2692.754999996396},{""relative-x"":0.52734375,""relative-y"":0.7225,""elapse-time"":2756.1449999993783},{""relative-x"":0.39296875,""relative-y"":0.6175,""elapse-time"":2833.7499999979627},{""relative-x"":0.578125,""relative-y"":0.59625,""elapse-time"":2902.074999998149},{""relative-x"":0.75703125,""relative-y"":0.4475,""elapse-time"":2959.179999998014},{""relative-x"":0.85625,""relative-y"":0.3575,""elapse-time"":3016.810000000987},{""relative-x"":0.628125,""relative-y"":0.49625,""elapse-time"":3084.1250000012224},{""relative-x"":0.38828125,""relative-y"":0.725,""elapse-time"":3145.380000001751},{""relative-x"":0.98984375,""relative-y"":0.5725,""elapse-time"":3208.8049999947543},{""relative-x"":0.99375,""relative-y"":0.5175,""elapse-time"":3322.999999996682},{""relative-x"":0.3140625,""relative-y"":0.71625,""elapse-time"":3392.1300000001793},{""relative-x"":0.32578125,""relative-y"":0.6925,""elapse-time"":3468.1500000006054},{""relative-x"":0.5359375,""relative-y"":0.67875,""elapse-time"":3541.1849999945844},{""relative-x"":0.67421875,""relative-y"":0.67375,""elapse-time"":3618.9699999958975},{""relative-x"":0.534375,""relative-y"":0.61375,""elapse-time"":3695.209999998042},{""relative-x"":0.2875,""relative-y"":0.7325,""elapse-time"":3764.5550000015646},{""relative-x"":0.8984375,""relative-y"":0.39125,""elapse-time"":3824.719999996887},{""relative-x"":0.54296875,""relative-y"":0.69875,""elapse-time"":3890.480000001844},{""relative-x"":1.03046875,""relative-y"":0.4375,""elapse-time"":3957.204999998794}]}","""","""","""","""","""","2021-01-14 11:42:20",,"Mozilla/5.0 (Macintosh; Intel Mac OS X 10_13_6) AppleWebKit/537.36 (KHTML, like Gecko) Chrome/87.0.4280.141 Safari/537.36",Macintosh,Chrome,87.0.4280.141,"OS X",10_13_6
21,1,null,"""","""","""","""",html-keyboard-response,20,54688,0.0-12.0-2.0-0.3,811,0,0,"Integrierte iSight-Kamera (05ac:8507)",30.000030517578125,0.0020833333333333333,480,640,$4.5,"30 days","""",null,"""","""","""","""","""","""","""","""","""","""","""","2021-01-14 11:42:20",,"Mozilla/5.0 (Macintosh; Intel Mac OS X 10_13_6) AppleWebKit/537.36 (KHTML, like Gecko) Chrome/87.0.4280.141 Safari/537.36",Macintosh,Chrome,87.0.4280.141,"OS X",10_13_6
21,1,"""","""","""",1280,800,eyetracking-calibration,21,58633,0.0-12.0-2.0-1.3,811,0,0,"Integrierte iSight-Kamera (05ac:8507)",30.000030517578125,0.0020833333333333333,480,640,$4.5,"30 days","""","""","""",0.8,0.8,0,0,"{""history"":[{""relative-x"":0.784375,""relative-y"":0.48375,""elapse-time"":73.60499999776948},{""relative-x"":0.93125,""relative-y"":0.42,""elapse-time"":133.56499999645166},{""relative-x"":0.98984375,""relative-y"":0.43875,""elapse-time"":188.79999999626307},{""relative-x"":0.834375,""relative-y"":0.57125,""elapse-time"":246.03499999648193},{""relative-x"":0.934375,""relative-y"":0.615,""elapse-time"":307.24999999802094},{""relative-x"":0.93671875,""relative-y"":0.6725,""elapse-time"":360.50999999861233},{""relative-x"":0.83828125,""relative-y"":0.5675,""elapse-time"":419.3899999954738},{""relative-x"":0.7859375,""relative-y"":0.7,""elapse-time"":481.53499999898486},{""relative-x"":0.98828125,""relative-y"":0.5075,""elapse-time"":537.1450000020559},{""relative-x"":1.16328125,""relative-y"":0.4425,""elapse-time"":598.4749999988708},{""relative-x"":1.00625,""relative-y"":0.4675,""elapse-time"":665.4399999970337},{""relative-x"":0.7875,""relative-y"":0.6125,""elapse-time"":734.0100000001257},{""relative-x"":0.81171875,""relative-y"":0.62375,""elapse-time"":799.829999996291},{""relative-x"":0.9484375,""relative-y"":0.55625,""elapse-time"":873.5149999993155},{""relative-x"":0.82265625,""relative-y"":0.59625,""elapse-time"":940.3049999964423},{""relative-x"":0.99453125,""relative-y"":0.52375,""elapse-time"":1008.880000001227},{""relative-x"":0.646875,""relative-y"":0.88625,""elapse-time"":1090.4549999977462},{""relative-x"":1.03515625,""relative-y"":0.3725,""elapse-time"":1159.8499999963678},{""relative-x"":1.1390625,""relative-y"":0.5275,""elapse-time"":1222.1749999953317},{""relative-x"":0.6765625,""relative-y"":0.71625,""elapse-time"":1291.4049999963026},{""relative-x"":0.93203125,""relative-y"":0.555,""elapse-time"":1357.0350000009057},{""relative-x"":0.87578125,""relative-y"":0.47125,""elapse-time"":1416.3449999978184},{""relative-x"":0.93515625,""relative-y"":0.55875,""elapse-time"":1479.8900000023423},{""relative-x"":0.90234375,""relative-y"":0.61875,""elapse-time"":1546.7700000008335},{""relative-x"":0.56640625,""relative-y"":0.76875,""elapse-time"":1621.0149999969872},{""relative-x"":0.871875,""relative-y"":0.77,""elapse-time"":1693.2049999959418},{""relative-x"":0.9828125,""relative-y"":0.625,""elapse-time"":1757.1850000022096},{""relative-x"":0.76640625,""relative-y"":0.6025,""elapse-time"":1829.5199999993201},{""relative-x"":0.8953125,""relative-y"":0.61125,""elapse-time"":1895.7299999965471},{""relative-x"":0.73125,""relative-y"":0.74625,""elapse-time"":1973.8749999960419},{""relative-x"":0.45,""relative-y"":0.59,""elapse-time"":2039.649999998801},{""relative-x"":0.8984375,""relative-y"":0.7275,""elapse-time"":2104.7749999997905},{""relative-x"":0.6578125,""relative-y"":0.71375,""elapse-time"":2171.9299999967916},{""relative-x"":0.6640625,""relative-y"":0.695,""elapse-time"":2249.194999996689},{""relative-x"":0.62578125,""relative-y"":0.675,""elapse-time"":2319.084999995539},{""relative-x"":0.59453125,""relative-y"":0.84,""elapse-time"":2389.9749999982305},{""relative-x"":0.43984375,""relative-y"":0.64375,""elapse-time"":2460.4849999959697},{""relative-x"":0.93828125,""relative-y"":0.75,""elapse-time"":2541.414999999688},{""relative-x"":1.07421875,""relative-y"":0.615,""elapse-time"":2608.059999998659},{""relative-x"":1.1109375,""relative-y"":0.82625,""elapse-time"":2669.000000001688},{""relative-x"":0.71015625,""relative-y"":0.5525,""elapse-time"":2740.6899999987218},{""relative-x"":0.69453125,""relative-y"":0.59,""elapse-time"":2814.089999999851},{""relative-x"":0.21171875,""relative-y"":0.84375,""elapse-time"":2887.559999995574},{""relative-x"":0.5140625,""relative-y"":0.40875,""elapse-time"":2953.6650000009104},{""relative-x"":0.39609375,""relative-y"":0.9125,""elapse-time"":3028.1600000016624},{""relative-x"":0.4984375,""relative-y"":0.61625,""elapse-time"":3106.5600000001723},{""relative-x"":0.71484375,""relative-y"":0.78,""elapse-time"":3175.24499999854},{""relative-x"":0.209375,""relative-y"":0.62875,""elapse-time"":3277.024999995774},{""relative-x"":0.9765625,""relative-y"":0.815,""elapse-time"":3358.3900000012363},{""relative-x"":0.5609375,""relative-y"":0.93875,""elapse-time"":3433.3800000022165},{""relative-x"":1.07421875,""relative-y"":0.96875,""elapse-time"":3503.550000001269},{""relative-x"":0.88203125,""relative-y"":1.21125,""elapse-time"":3574.1799999959767},{""relative-x"":1.18125,""relative-y"":0.9525,""elapse-time"":3655.0999999963096},{""relative-x"":0.97890625,""relative-y"":0.8175,""elapse-time"":3733.8549999985844},{""relative-x"":0.24296875,""relative-y"":0.26125,""elapse-time"":3797.9249999989406},{""relative-x"":0.52890625,""relative-y"":0.1425,""elapse-time"":3862.23500000051},{""relative-x"":0.6078125,""relative-y"":1.13625,""elapse-time"":3936.150000001362}]}","""","""","""","""","""","2021-01-14 11:42:20",,"Mozilla/5.0 (Macintosh; Intel Mac OS X 10_13_6) AppleWebKit/537.36 (KHTML, like Gecko) Chrome/87.0.4280.141 Safari/537.36",Macintosh,Chrome,87.0.4280.141,"OS X",10_13_6
21,1,null,"""","""","""","""",html-keyboard-response,22,60144,0.0-12.0-2.0-0.4,811,0,0,"Integrierte iSight-Kamera (05ac:8507)",30.000030517578125,0.0020833333333333333,480,640,$4.5,"30 days","""",null,"""","""","""","""","""","""","""","""","""","""","""","2021-01-14 11:42:20",,"Mozilla/5.0 (Macintosh; Intel Mac OS X 10_13_6) AppleWebKit/537.36 (KHTML, like Gecko) Chrome/87.0.4280.141 Safari/537.36",Macintosh,Chrome,87.0.4280.141,"OS X",10_13_6
21,1,"""","""","""",1280,800,eyetracking-calibration,23,64173,0.0-12.0-2.0-1.4,811,0,0,"Integrierte iSight-Kamera (05ac:8507)",30.000030517578125,0.0020833333333333333,480,640,$4.5,"30 days","""","""","""",0.65,0.65,0,0,"{""history"":[{""relative-x"":0.09609375,""relative-y"":0.54125,""elapse-time"":71.3400000022375},{""relative-x"":0.028125,""relative-y"":0.56,""elapse-time"":127.70000000455184},{""relative-x"":0.01875,""relative-y"":0.4025,""elapse-time"":189.72000000212574},{""relative-x"":-0.0625,""relative-y"":0.3525,""elapse-time"":251.04999999894062},{""relative-x"":0.21328125,""relative-y"":0.8125,""elapse-time"":310.26000000565546},{""relative-x"":0.81640625,""relative-y"":0.48875,""elapse-time"":372.5699999995413},{""relative-x"":0.3375,""relative-y"":0.3225,""elapse-time"":433.3150000020396},{""relative-x"":0.60703125,""relative-y"":0.01125,""elapse-time"":494.2700000028708},{""relative-x"":0.228125,""relative-y"":0.59875,""elapse-time"":563.0400000009104},{""relative-x"":0.51875,""relative-y"":0.7625,""elapse-time"":625.8050000033109},{""relative-x"":0.771875,""relative-y"":0.55125,""elapse-time"":691.595000003872},{""relative-x"":0.55703125,""relative-y"":0.05875,""elapse-time"":762.894999999844},{""relative-x"":0.390625,""relative-y"":0.615,""elapse-time"":834.8150000019814},{""relative-x"":0.43828125,""relative-y"":0.65375,""elapse-time"":906.8400000032852},{""relative-x"":1.1125,""relative-y"":0.43375,""elapse-time"":984.2700000008335},{""relative-x"":1.1109375,""relative-y"":0.5975,""elapse-time"":1054.775000004156},{""relative-x"":1.2171875,""relative-y"":0.81875,""elapse-time"":1123.090000000957},{""relative-x"":-0.24765625,""relative-y"":0.59125,""elapse-time"":2073.755000004894},{""relative-x"":-0.69609375,""relative-y"":0.365,""elapse-time"":2169.370000003255},{""relative-x"":0.40078125,""relative-y"":0.42,""elapse-time"":2248.6900000003516},{""relative-x"":0.69453125,""relative-y"":0.41125,""elapse-time"":2320.2450000026147},{""relative-x"":0.6484375,""relative-y"":0.88125,""elapse-time"":2390.8900000024005},{""relative-x"":0.4046875,""relative-y"":0.6925,""elapse-time"":2452.6050000058603},{""relative-x"":-0.05078125,""relative-y"":0.605,""elapse-time"":2514.2550000018673},{""relative-x"":0.96796875,""relative-y"":0.3375,""elapse-time"":2600.880000005418},{""relative-x"":0.8421875,""relative-y"":0.9375,""elapse-time"":2674.250000003667},{""relative-x"":0.3796875,""relative-y"":0.76375,""elapse-time"":2743.305000003602},{""relative-x"":0.87890625,""relative-y"":0.48625,""elapse-time"":2812.0750000016415},{""relative-x"":0.16796875,""relative-y"":0.48125,""elapse-time"":2880.5449999999837},{""relative-x"":0.28828125,""relative-y"":0.83875,""elapse-time"":2954.604999998992},{""relative-x"":0.45859375,""relative-y"":1.085,""elapse-time"":3018.775000004098},{""relative-x"":0.6375,""relative-y"":0.9125,""elapse-time"":3079.9499999993714},{""relative-x"":0.62265625,""relative-y"":0.34875,""elapse-time"":3156.1950000032084},{""relative-x"":0.43203125,""relative-y"":0.44125,""elapse-time"":3218.155000002298},{""relative-x"":0.90546875,""relative-y"":0.71875,""elapse-time"":3285.0350000007893},{""relative-x"":0.278125,""relative-y"":0.7175,""elapse-time"":3349.110000002838},{""relative-x"":0.97265625,""relative-y"":0.78375,""elapse-time"":3431.2950000021374},{""relative-x"":0.56484375,""relative-y"":0.50125,""elapse-time"":3506.0500000035972},{""relative-x"":0.7140625,""relative-y"":0.9375,""elapse-time"":3584.210000000894},{""relative-x"":-0.50703125,""relative-y"":0.37625,""elapse-time"":3659.1950000001816},{""relative-x"":0.92265625,""relative-y"":1.0375,""elapse-time"":3730.230000001029},{""relative-x"":1.528125,""relative-y"":0.955,""elapse-time"":3803.6400000055437},{""relative-x"":0.68828125,""relative-y"":0.635,""elapse-time"":3877.5450000030105},{""relative-x"":1.29453125,""relative-y"":0.56625,""elapse-time"":3947.295000005397},{""relative-x"":1.084375,""relative-y"":0.91125,""elapse-time"":4018.705000002228}]}","""","""","""","""","""","2021-01-14 11:42:20",,"Mozilla/5.0 (Macintosh; Intel Mac OS X 10_13_6) AppleWebKit/537.36 (KHTML, like Gecko) Chrome/87.0.4280.141 Safari/537.36",Macintosh,Chrome,87.0.4280.141,"OS X",10_13_6
21,1,null,"""","""","""","""",html-keyboard-response,24,65680,0.0-12.0-2.0-0.5,811,0,0,"Integrierte iSight-Kamera (05ac:8507)",30.000030517578125,0.0020833333333333333,480,640,$4.5,"30 days","""",null,"""","""","""","""","""","""","""","""","""","""","""","2021-01-14 11:42:20",,"Mozilla/5.0 (Macintosh; Intel Mac OS X 10_13_6) AppleWebKit/537.36 (KHTML, like Gecko) Chrome/87.0.4280.141 Safari/537.36",Macintosh,Chrome,87.0.4280.141,"OS X",10_13_6
21,1,"""","""","""",1280,800,eyetracking-calibration,25,69519,0.0-12.0-2.0-1.5,811,0,0,"Integrierte iSight-Kamera (05ac:8507)",30.000030517578125,0.0020833333333333333,480,640,$4.5,"30 days","""","""","""",0.35,0.65,0,0,"{""history"":[{""relative-x"":0.6953125,""relative-y"":1.2525,""elapse-time"":77.75500000570901},{""relative-x"":1.0140625,""relative-y"":0.89625,""elapse-time"":140.06499999959487},{""relative-x"":1.365625,""relative-y"":0.82875,""elapse-time"":203.6900000020978},{""relative-x"":1.23828125,""relative-y"":0.80375,""elapse-time"":267.94499999959953},{""relative-x"":0.68828125,""relative-y"":1.07625,""elapse-time"":329.0899999992689},{""relative-x"":1.02734375,""relative-y"":0.95125,""elapse-time"":392.2500000044238},{""relative-x"":0.75078125,""relative-y"":0.52875,""elapse-time"":459.73500000400236},{""relative-x"":0.86015625,""relative-y"":1.2725,""elapse-time"":518.7950000035926},{""relative-x"":0.584375,""relative-y"":0.755,""elapse-time"":587.6900000002934},{""relative-x"":1.19296875,""relative-y"":0.05375,""elapse-time"":657.9150000034133},{""relative-x"":0.9703125,""relative-y"":0.7325,""elapse-time"":732.2350000031292},{""relative-x"":0.71015625,""relative-y"":0.66875,""elapse-time"":807.7650000050198},{""relative-x"":2.35234375,""relative-y"":0.155,""elapse-time"":1745.375000005879},{""relative-x"":-0.5125,""relative-y"":0.22,""elapse-time"":1836.3650000028429},{""relative-x"":0.66171875,""relative-y"":0.73875,""elapse-time"":1914.0350000016042},{""relative-x"":0.50234375,""relative-y"":0.645,""elapse-time"":1988.710000005085},{""relative-x"":-0.23203125,""relative-y"":0.63375,""elapse-time"":2068.7250000046333},{""relative-x"":-0.47578125,""relative-y"":0.225,""elapse-time"":2183.27500000305},{""relative-x"":-0.11171875,""relative-y"":0.02625,""elapse-time"":2253.3299999995506},{""relative-x"":0.5859375,""relative-y"":0.35,""elapse-time"":2317.1350000047823},{""relative-x"":0.55859375,""relative-y"":-0.10125,""elapse-time"":2391.8650000050548},{""relative-x"":1.14609375,""relative-y"":0.335,""elapse-time"":2464.635000003909},{""relative-x"":1.63046875,""relative-y"":0.50125,""elapse-time"":2523.5650000031455},{""relative-x"":0.5046875,""relative-y"":0.98625,""elapse-time"":2586.410000003525},{""relative-x"":1.43671875,""relative-y"":0.66375,""elapse-time"":2654.8750000001746},{""relative-x"":0.978125,""relative-y"":0.96625,""elapse-time"":2732.670000004873},{""relative-x"":0.8125,""relative-y"":0.73875,""elapse-time"":2802.845000005618},{""relative-x"":0.60078125,""relative-y"":0.6575,""elapse-time"":2881.825000004028},{""relative-x"":0.17734375,""relative-y"":0.83625,""elapse-time"":2961.2899999992806},{""relative-x"":0.44375,""relative-y"":0.4775,""elapse-time"":3037.1200000008685},{""relative-x"":0.92890625,""relative-y"":0.66125,""elapse-time"":3115.990000005695},{""relative-x"":1.21171875,""relative-y"":0.68625,""elapse-time"":3185.2450000005774},{""relative-x"":1.0390625,""relative-y"":0.71375,""elapse-time"":3264.6050000039395},{""relative-x"":0.325,""relative-y"":1.09625,""elapse-time"":3335.3150000039022},{""relative-x"":0.725,""relative-y"":0.7375,""elapse-time"":3412.8249999994296},{""relative-x"":0.75859375,""relative-y"":0.505,""elapse-time"":3480.5000000051223},{""relative-x"":0.68359375,""relative-y"":0.6825,""elapse-time"":3550.810000000638},{""relative-x"":1.09453125,""relative-y"":0.855,""elapse-time"":3623.140000003332},{""relative-x"":0.61171875,""relative-y"":0.65125,""elapse-time"":3694.0400000021327},{""relative-x"":0.42734375,""relative-y"":0.8,""elapse-time"":3763.7549999999464},{""relative-x"":1.45625,""relative-y"":1.0025,""elapse-time"":3829.2550000041956}]}","""","""","""","""","""","2021-01-14 11:42:20",,"Mozilla/5.0 (Macintosh; Intel Mac OS X 10_13_6) AppleWebKit/537.36 (KHTML, like Gecko) Chrome/87.0.4280.141 Safari/537.36",Macintosh,Chrome,87.0.4280.141,"OS X",10_13_6
21,1,null,"""","""","""","""",html-keyboard-response,26,71035,0.0-12.0-2.0-0.6,811,0,0,"Integrierte iSight-Kamera (05ac:8507)",30.000030517578125,0.0020833333333333333,480,640,$4.5,"30 days","""",null,"""","""","""","""","""","""","""","""","""","""","""","2021-01-14 11:42:20",,"Mozilla/5.0 (Macintosh; Intel Mac OS X 10_13_6) AppleWebKit/537.36 (KHTML, like Gecko) Chrome/87.0.4280.141 Safari/537.36",Macintosh,Chrome,87.0.4280.141,"OS X",10_13_6
21,1,"""","""","""",1280,800,eyetracking-calibration,27,75142,0.0-12.0-2.0-1.6,811,0,0,"Integrierte iSight-Kamera (05ac:8507)",30.000030517578125,0.0020833333333333333,480,640,$4.5,"30 days","""","""","""",0.5,0.8,0,0,"{""history"":[{""relative-x"":1.2734375,""relative-y"":0.13875,""elapse-time"":85.18500000354834},{""relative-x"":0.59375,""relative-y"":0.26125,""elapse-time"":146.22500000405125},{""relative-x"":0.9296875,""relative-y"":0.365,""elapse-time"":205.97000000270782},{""relative-x"":0.26484375,""relative-y"":0.19375,""elapse-time"":279.71500000421656},{""relative-x"":0.60859375,""relative-y"":0.51875,""elapse-time"":347.9150000057416},{""relative-x"":0.6546875,""relative-y"":0.74375,""elapse-time"":411.46999999909895},{""relative-x"":0.8671875,""relative-y"":0.4325,""elapse-time"":485.53499999979977},{""relative-x"":0.78125,""relative-y"":0.8,""elapse-time"":554.0250000049127},{""relative-x"":0.48671875,""relative-y"":0.41625,""elapse-time"":624.7050000019954},{""relative-x"":0.3640625,""relative-y"":0.59875,""elapse-time"":693.3100000023842},{""relative-x"":0.94375,""relative-y"":0.6,""elapse-time"":773.1650000059744},{""relative-x"":0.26171875,""relative-y"":0.745,""elapse-time"":853.1849999999395},{""relative-x"":0.8109375,""relative-y"":0.9,""elapse-time"":921.8499999988126},{""relative-x"":0.2765625,""relative-y"":0.4025,""elapse-time"":995.2100000009523},{""relative-x"":0.19765625,""relative-y"":0.75375,""elapse-time"":1070.8850000009988},{""relative-x"":0.56875,""relative-y"":0.7675,""elapse-time"":1153.4800000008545},{""relative-x"":0.940625,""relative-y"":0.7675,""elapse-time"":1219.7700000033365},{""relative-x"":0.7921875,""relative-y"":0.90125,""elapse-time"":1288.7950000003912},{""relative-x"":0.48359375,""relative-y"":0.53125,""elapse-time"":1353.8300000000163},{""relative-x"":0.63125,""relative-y"":0.56,""elapse-time"":1445.3100000027916},{""relative-x"":0.459375,""relative-y"":0.2725,""elapse-time"":1517.3300000024028},{""relative-x"":-0.0625,""relative-y"":0.30125,""elapse-time"":1597.170000000915},{""relative-x"":0.65,""relative-y"":0.4675,""elapse-time"":1676.1050000059186},{""relative-x"":0.52734375,""relative-y"":1.03625,""elapse-time"":1750.2500000045984},{""relative-x"":0.609375,""relative-y"":0.81875,""elapse-time"":1833.4500000055414},{""relative-x"":0.9375,""relative-y"":0.865,""elapse-time"":1914.4100000048638},{""relative-x"":0.134375,""relative-y"":0.9475,""elapse-time"":1992.485000002489},{""relative-x"":0.22734375,""relative-y"":0.69875,""elapse-time"":2059.339999999793},{""relative-x"":0.78125,""relative-y"":0.6775,""elapse-time"":2130.300000004354},{""relative-x"":0.24296875,""relative-y"":0.48375,""elapse-time"":2205.2400000029593},{""relative-x"":0.2671875,""relative-y"":0.53625,""elapse-time"":2269.960000005085},{""relative-x"":0.20234375,""relative-y"":0.55875,""elapse-time"":2336.9650000022375},{""relative-x"":0.69609375,""relative-y"":0.895,""elapse-time"":2415.390000001935},{""relative-x"":0.00078125,""relative-y"":0.8275,""elapse-time"":2492.805000001681},{""relative-x"":0.3359375,""relative-y"":0.87875,""elapse-time"":2567.2750000012456},{""relative-x"":0.39375,""relative-y"":0.695,""elapse-time"":2644.9250000005122},{""relative-x"":0.82890625,""relative-y"":0.8025,""elapse-time"":2723.949999999604},{""relative-x"":0.6234375,""relative-y"":0.9975,""elapse-time"":2804.1599999996834},{""relative-x"":0.7828125,""relative-y"":0.8875,""elapse-time"":2873.02500000078},{""relative-x"":0.1546875,""relative-y"":0.98625,""elapse-time"":2945.435000001453},{""relative-x"":-0.30234375,""relative-y"":1.0225,""elapse-time"":3053.4150000021327},{""relative-x"":0.39453125,""relative-y"":0.8425,""elapse-time"":3134.235000004992},{""relative-x"":-0.090625,""relative-y"":0.87875,""elapse-time"":3204.600000004575},{""relative-x"":0.04765625,""relative-y"":0.705,""elapse-time"":3289.5300000018324},{""relative-x"":1.11640625,""relative-y"":0.525,""elapse-time"":3365.5150000049616},{""relative-x"":0.4234375,""relative-y"":0.86125,""elapse-time"":3438.9550000050804},{""relative-x"":1.115625,""relative-y"":0.93375,""elapse-time"":3515.915000003588},{""relative-x"":0.06015625,""relative-y"":0.6625,""elapse-time"":3586.7550000039046},{""relative-x"":1.5546875,""relative-y"":0.805,""elapse-time"":3660.780000005616},{""relative-x"":1.61015625,""relative-y"":0.7725,""elapse-time"":3736.0200000039185},{""relative-x"":-0.28359375,""relative-y"":1.1475,""elapse-time"":3818.765000003623},{""relative-x"":0.578125,""relative-y"":0.975,""elapse-time"":3896.789999998873},{""relative-x"":0.96953125,""relative-y"":0.21625,""elapse-time"":3966.7850000041653},{""relative-x"":1.66015625,""relative-y"":0.54375,""elapse-time"":4030.3899999998976},{""relative-x"":1.12890625,""relative-y"":1.065,""elapse-time"":4094.9099999997998}]}","""","""","""","""","""","2021-01-14 11:42:20",,"Mozilla/5.0 (Macintosh; Intel Mac OS X 10_13_6) AppleWebKit/537.36 (KHTML, like Gecko) Chrome/87.0.4280.141 Safari/537.36",Macintosh,Chrome,87.0.4280.141,"OS X",10_13_6
21,1,null,"""","""","""","""",html-keyboard-response,28,76651,0.0-12.0-2.0-0.7,811,0,0,"Integrierte iSight-Kamera (05ac:8507)",30.000030517578125,0.0020833333333333333,480,640,$4.5,"30 days","""",null,"""","""","""","""","""","""","""","""","""","""","""","2021-01-14 11:42:20",,"Mozilla/5.0 (Macintosh; Intel Mac OS X 10_13_6) AppleWebKit/537.36 (KHTML, like Gecko) Chrome/87.0.4280.141 Safari/537.36",Macintosh,Chrome,87.0.4280.141,"OS X",10_13_6
21,1,"""","""","""",1280,800,eyetracking-calibration,29,81446,0.0-12.0-2.0-1.7,811,0,0,"Integrierte iSight-Kamera (05ac:8507)",30.000030517578125,0.0020833333333333333,480,640,$4.5,"30 days","""","""","""",0.8,0.2,0,0,"{""history"":[{""relative-x"":-0.84609375,""relative-y"":0.68,""elapse-time"":83.95500000187894},{""relative-x"":1.14765625,""relative-y"":0.45125,""elapse-time"":150.3149999989546},{""relative-x"":1.7484375,""relative-y"":0.6375,""elapse-time"":215.9749999991618},{""relative-x"":1.83984375,""relative-y"":0.56375,""elapse-time"":276.4050000041607},{""relative-x"":1.75546875,""relative-y"":0.845,""elapse-time"":338.49999999802094},{""relative-x"":-0.18984375,""relative-y"":0.99875,""elapse-time"":405.3199999980279},{""relative-x"":0.06484375,""relative-y"":0.6525,""elapse-time"":466.04500000103144},{""relative-x"":2.0859375,""relative-y"":0.9,""elapse-time"":525.8499999981723},{""relative-x"":0.17421875,""relative-y"":0.79375,""elapse-time"":594.0649999974994},{""relative-x"":1.784375,""relative-y"":0.98875,""elapse-time"":654.5400000031805},{""relative-x"":0.81796875,""relative-y"":1.06125,""elapse-time"":714.5400000008522},{""relative-x"":0.65546875,""relative-y"":0.96375,""elapse-time"":781.9900000031339},{""relative-x"":0.3921875,""relative-y"":0.7475,""elapse-time"":843.44499999861},{""relative-x"":0.375,""relative-y"":0.97,""elapse-time"":920.814999997674},{""relative-x"":0.19765625,""relative-y"":0.3825,""elapse-time"":1004.0000000008149},{""relative-x"":0.21015625,""relative-y"":0.485,""elapse-time"":1080.2550000007614},{""relative-x"":5.025,""relative-y"":2.13,""elapse-time"":2018.6800000010408},{""relative-x"":-0.1296875,""relative-y"":-1.15625,""elapse-time"":2101.090000003751},{""relative-x"":0.778125,""relative-y"":0.5475,""elapse-time"":2170.2450000011595},{""relative-x"":0.04296875,""relative-y"":0.32125,""elapse-time"":2238.1250000034925},{""relative-x"":-0.0578125,""relative-y"":0.15875,""elapse-time"":2308.1549999988056},{""relative-x"":4.8953125,""relative-y"":1.2675,""elapse-time"":2391.925000003539},{""relative-x"":2.7328125,""relative-y"":0.98125,""elapse-time"":2470.8600000012666},{""relative-x"":0.4375,""relative-y"":0.5925,""elapse-time"":2553.2600000005914},{""relative-x"":0.35390625,""relative-y"":0.55375,""elapse-time"":2628.13499999902},{""relative-x"":2.54921875,""relative-y"":0.8,""elapse-time"":2713.114999998652},{""relative-x"":1.6359375,""relative-y"":0.51625,""elapse-time"":2792.9650000005495},{""relative-x"":2.6859375,""relative-y"":0.0675,""elapse-time"":2873.3199999987846},{""relative-x"":3.44921875,""relative-y"":0.43125,""elapse-time"":2951.7200000045705},{""relative-x"":2.40546875,""relative-y"":0.72125,""elapse-time"":3029.705000000831},{""relative-x"":1.04453125,""relative-y"":0.17125,""elapse-time"":3113.1250000034925},{""relative-x"":-0.8953125,""relative-y"":1.06125,""elapse-time"":3187.675000001036},{""relative-x"":-1.1234375,""relative-y"":0.8375,""elapse-time"":3264.069999997446},{""relative-x"":-3.6609375,""relative-y"":2.09875,""elapse-time"":3340.8350000026985},{""relative-x"":-1.07578125,""relative-y"":1.16125,""elapse-time"":3414.6850000033737},{""relative-x"":-2.40859375,""relative-y"":1.2925,""elapse-time"":3485.995000002731},{""relative-x"":0.98671875,""relative-y"":0.45875,""elapse-time"":3566.559999999299},{""relative-x"":-2.02109375,""relative-y"":1.13625,""elapse-time"":3642.1449999979814},{""relative-x"":2.66015625,""relative-y"":-0.30625,""elapse-time"":3714.1300000002957},{""relative-x"":1.7109375,""relative-y"":0.7225,""elapse-time"":3789.700000001176},{""relative-x"":-0.28671875,""relative-y"":-1.7775,""elapse-time"":3867.7200000020093},{""relative-x"":2.0234375,""relative-y"":-3.0525,""elapse-time"":3947.005000001809},{""relative-x"":-0.159375,""relative-y"":-0.70125,""elapse-time"":4028.1250000043656},{""relative-x"":-0.55703125,""relative-y"":-0.41625,""elapse-time"":4106.995000001916},{""relative-x"":6.67421875,""relative-y"":2.54625,""elapse-time"":4180.670000001555},{""relative-x"":3.1390625,""relative-y"":0.4775,""elapse-time"":4254.7449999983655},{""relative-x"":5.67734375,""relative-y"":2.1625,""elapse-time"":4324.24500000343},{""relative-x"":-0.734375,""relative-y"":-0.215,""elapse-time"":4446.775000003981},{""relative-x"":-3.4953125,""relative-y"":-0.995,""elapse-time"":4537.320000003092},{""relative-x"":1.48828125,""relative-y"":-0.7075,""elapse-time"":4616.939999999886},{""relative-x"":0.5390625,""relative-y"":0.00875,""elapse-time"":4697.375000003376},{""relative-x"":2.5109375,""relative-y"":0.09125,""elapse-time"":4778.890000001411}]}","""","""","""","""","""","2021-01-14 11:42:20",,"Mozilla/5.0 (Macintosh; Intel Mac OS X 10_13_6) AppleWebKit/537.36 (KHTML, like Gecko) Chrome/87.0.4280.141 Safari/537.36",Macintosh,Chrome,87.0.4280.141,"OS X",10_13_6
21,1,null,"""","""","""","""",html-keyboard-response,30,82955,0.0-12.0-2.0-0.8,811,0,0,"Integrierte iSight-Kamera (05ac:8507)",30.000030517578125,0.0020833333333333333,480,640,$4.5,"30 days","""",null,"""","""","""","""","""","""","""","""","""","""","""","2021-01-14 11:42:20",,"Mozilla/5.0 (Macintosh; Intel Mac OS X 10_13_6) AppleWebKit/537.36 (KHTML, like Gecko) Chrome/87.0.4280.141 Safari/537.36",Macintosh,Chrome,87.0.4280.141,"OS X",10_13_6
21,1,"""","""","""",1280,800,eyetracking-calibration,31,88140,0.0-12.0-2.0-1.8,811,0,0,"Integrierte iSight-Kamera (05ac:8507)",30.000030517578125,0.0020833333333333333,480,640,$4.5,"30 days","""","""","""",0.2,0.2,0,0,"{""history"":[{""relative-x"":1.21015625,""relative-y"":0.5325,""elapse-time"":81.2900000018999},{""relative-x"":0.88125,""relative-y"":0.2775,""elapse-time"":153.49000000423985},{""relative-x"":2.06875,""relative-y"":0.63,""elapse-time"":225.49000000435626},{""relative-x"":-1.184375,""relative-y"":0.6075,""elapse-time"":293.0700000069919},{""relative-x"":-0.909375,""relative-y"":0.725,""elapse-time"":371.0800000044401},{""relative-x"":-2.684375,""relative-y"":0.67875,""elapse-time"":448.08500000362983},{""relative-x"":-1.92578125,""relative-y"":0.49125,""elapse-time"":524.8850000061793},{""relative-x"":1.05859375,""relative-y"":1.55375,""elapse-time"":607.3800000012852},{""relative-x"":1.9640625,""relative-y"":-0.0375,""elapse-time"":682.7700000067125},{""relative-x"":-0.43125,""relative-y"":-0.04375,""elapse-time"":764.2550000018673},{""relative-x"":1.11796875,""relative-y"":-0.7325,""elapse-time"":834.4100000031176},{""relative-x"":0.3625,""relative-y"":0.75375,""elapse-time"":898.3450000014273},{""relative-x"":0.0546875,""relative-y"":0.61125,""elapse-time"":967.8150000036112},{""relative-x"":1.559375,""relative-y"":0.1425,""elapse-time"":1046.025000003283},{""relative-x"":0.44921875,""relative-y"":0.46875,""elapse-time"":1131.9550000043819},{""relative-x"":0.19375,""relative-y"":0.05,""elapse-time"":1215.4150000060326},{""relative-x"":0.22734375,""relative-y"":-0.66625,""elapse-time"":1303.6100000026636},{""relative-x"":-0.284375,""relative-y"":0.375,""elapse-time"":1383.2650000040303},{""relative-x"":1.30703125,""relative-y"":0.6525,""elapse-time"":1465.0350000010803},{""relative-x"":0.81640625,""relative-y"":0.2325,""elapse-time"":1541.0550000015064},{""relative-x"":-0.71015625,""relative-y"":0.085,""elapse-time"":1628.5550000029616},{""relative-x"":0.21171875,""relative-y"":0.6575,""elapse-time"":1721.6500000067754},{""relative-x"":0.84453125,""relative-y"":0.88625,""elapse-time"":1800.5650000050082},{""relative-x"":0.51953125,""relative-y"":-0.13625,""elapse-time"":1877.825000003213},{""relative-x"":0.98359375,""relative-y"":0.31,""elapse-time"":1965.1100000046426},{""relative-x"":0.9421875,""relative-y"":0.015,""elapse-time"":2049.49000000488},{""relative-x"":-0.1796875,""relative-y"":-0.12625,""elapse-time"":2132.0450000057463},{""relative-x"":0.10234375,""relative-y"":0.0875,""elapse-time"":2210.350000001199},{""relative-x"":0.64921875,""relative-y"":0.3725,""elapse-time"":2283.9250000033644},{""relative-x"":0.0359375,""relative-y"":0.47625,""elapse-time"":2357.3100000066916},{""relative-x"":0.38515625,""relative-y"":0.07125,""elapse-time"":2433.5250000003725},{""relative-x"":-0.5265625,""relative-y"":0.475,""elapse-time"":2513.245000001916},{""relative-x"":0.74140625,""relative-y"":0.39,""elapse-time"":2596.6500000067754},{""relative-x"":-0.34375,""relative-y"":0.44125,""elapse-time"":2676.6200000056415},{""relative-x"":0.25859375,""relative-y"":0.10625,""elapse-time"":2757.180000000517},{""relative-x"":-0.67734375,""relative-y"":0.63375,""elapse-time"":2845.5900000044494},{""relative-x"":-0.934375,""relative-y"":-0.18125,""elapse-time"":2927.8850000046077},{""relative-x"":-0.46015625,""relative-y"":0.195,""elapse-time"":3008.960000006482},{""relative-x"":-0.40625,""relative-y"":0.50375,""elapse-time"":3087.330000002112},{""relative-x"":0.26171875,""relative-y"":-0.0425,""elapse-time"":3162.675000006857},{""relative-x"":-1.01328125,""relative-y"":0.955,""elapse-time"":3245.7650000069407},{""relative-x"":-1.5390625,""relative-y"":0.76875,""elapse-time"":3324.8850000018138},{""relative-x"":1.296875,""relative-y"":0.2975,""elapse-time"":3411.9300000020303},{""relative-x"":1.45859375,""relative-y"":0.19875,""elapse-time"":3488.7050000033923},{""relative-x"":0.071875,""relative-y"":0.8175,""elapse-time"":3562.230000003183},{""relative-x"":0.49453125,""relative-y"":0.4325,""elapse-time"":3640.3100000025006},{""relative-x"":0.53359375,""relative-y"":0.6225,""elapse-time"":3724.0250000031665},{""relative-x"":-0.21796875,""relative-y"":0.86125,""elapse-time"":3807.1150000032503},{""relative-x"":0.47109375,""relative-y"":-0.17,""elapse-time"":3887.6450000025216},{""relative-x"":-0.30546875,""relative-y"":0.585,""elapse-time"":3970.8650000029593},{""relative-x"":0.453125,""relative-y"":0.165,""elapse-time"":4049.1950000068755},{""relative-x"":0.63515625,""relative-y"":0.1475,""elapse-time"":4174.590000002354},{""relative-x"":0.265625,""relative-y"":0.51375,""elapse-time"":4252.115000002959},{""relative-x"":1.0390625,""relative-y"":0.3275,""elapse-time"":4342.700000001059},{""relative-x"":-0.5296875,""relative-y"":0.02875,""elapse-time"":4427.515000003041},{""relative-x"":0.02421875,""relative-y"":-0.1475,""elapse-time"":4511.175000006915},{""relative-x"":0.28671875,""relative-y"":1.17,""elapse-time"":4583.585000000312},{""relative-x"":0.17734375,""relative-y"":-0.13875,""elapse-time"":4661.070000001928},{""relative-x"":-0.325,""relative-y"":0.31375,""elapse-time"":4732.020000003104},{""relative-x"":0.14375,""relative-y"":0.4,""elapse-time"":4796.0800000000745},{""relative-x"":0.0421875,""relative-y"":0.30125,""elapse-time"":4874.055000000226},{""relative-x"":-0.184375,""relative-y"":0.27375,""elapse-time"":4949.24500000343},{""relative-x"":0.43828125,""relative-y"":0.50125,""elapse-time"":5026.610000000801},{""relative-x"":0.59765625,""relative-y"":0.51,""elapse-time"":5100.960000003397},{""relative-x"":0.60078125,""relative-y"":-0.17625,""elapse-time"":5176.355000003241}]}","""","""","""","""","""","2021-01-14 11:42:20",,"Mozilla/5.0 (Macintosh; Intel Mac OS X 10_13_6) AppleWebKit/537.36 (KHTML, like Gecko) Chrome/87.0.4280.141 Safari/537.36",Macintosh,Chrome,87.0.4280.141,"OS X",10_13_6
21,1,null,"""","""","""","""",html-keyboard-response,32,89646,0.0-12.0-2.0-0.9,811,0,0,"Integrierte iSight-Kamera (05ac:8507)",30.000030517578125,0.0020833333333333333,480,640,$4.5,"30 days","""",null,"""","""","""","""","""","""","""","""","""","""","""","2021-01-14 11:42:20",,"Mozilla/5.0 (Macintosh; Intel Mac OS X 10_13_6) AppleWebKit/537.36 (KHTML, like Gecko) Chrome/87.0.4280.141 Safari/537.36",Macintosh,Chrome,87.0.4280.141,"OS X",10_13_6
21,1,"""","""","""",1280,800,eyetracking-calibration,33,93763,0.0-12.0-2.0-1.9,811,0,0,"Integrierte iSight-Kamera (05ac:8507)",30.000030517578125,0.0020833333333333333,480,640,$4.5,"30 days","""","""","""",0.5,0.2,0,0,"{""history"":[{""relative-x"":-0.1359375,""relative-y"":0.38125,""elapse-time"":85.13500000117347},{""relative-x"":0.65078125,""relative-y"":0.01,""elapse-time"":151.59000000130618},{""relative-x"":0.56328125,""relative-y"":0.33,""elapse-time"":217.88499999820488},{""relative-x"":0.05546875,""relative-y"":0.49375,""elapse-time"":285.794999996142},{""relative-x"":0.578125,""relative-y"":0.2225,""elapse-time"":358.3749999961583},{""relative-x"":0.54453125,""relative-y"":0.12875,""elapse-time"":432.4599999963539},{""relative-x"":0.36875,""relative-y"":0.385,""elapse-time"":510.2199999964796},{""relative-x"":0.13125,""relative-y"":-0.025,""elapse-time"":585.559999999532},{""relative-x"":0.50625,""relative-y"":0.27375,""elapse-time"":664.6949999994831},{""relative-x"":-0.696875,""relative-y"":-0.16375,""elapse-time"":753.0150000020512},{""relative-x"":0.296875,""relative-y"":-0.06,""elapse-time"":832.9400000002352},{""relative-x"":0.23671875,""relative-y"":0.16,""elapse-time"":920.7049999968149},{""relative-x"":-0.2453125,""relative-y"":0.32,""elapse-time"":1011.7699999973411},{""relative-x"":0.84921875,""relative-y"":0.2325,""elapse-time"":1101.4349999968545},{""relative-x"":0.23984375,""relative-y"":0.12375,""elapse-time"":1190.0449999957345},{""relative-x"":0.28984375,""relative-y"":0.30625,""elapse-time"":1282.9599999968195},{""relative-x"":0.6,""relative-y"":0.17875,""elapse-time"":1366.7399999976624},{""relative-x"":0.66328125,""relative-y"":0.1675,""elapse-time"":1448.1999999989057},{""relative-x"":-0.078125,""relative-y"":0.48375,""elapse-time"":1523.0200000005425},{""relative-x"":0.62890625,""relative-y"":0.56875,""elapse-time"":1607.1549999978743},{""relative-x"":0.58828125,""relative-y"":0.20875,""elapse-time"":1686.7349999956787},{""relative-x"":0.5890625,""relative-y"":0.33875,""elapse-time"":1770.1499999966472},{""relative-x"":0.41875,""relative-y"":0.345,""elapse-time"":1842.5649999990128},{""relative-x"":0.18515625,""relative-y"":0.1775,""elapse-time"":1918.4649999951944},{""relative-x"":0.03671875,""relative-y"":0.24625,""elapse-time"":2018.5549999951036},{""relative-x"":0.15859375,""relative-y"":0.0275,""elapse-time"":2107.4850000004517},{""relative-x"":0.14765625,""relative-y"":0.2725,""elapse-time"":2195.4599999953643},{""relative-x"":0.7875,""relative-y"":0.44125,""elapse-time"":2287.929999998596},{""relative-x"":0.26484375,""relative-y"":0.3475,""elapse-time"":2372.5950000007288},{""relative-x"":0.49609375,""relative-y"":0.095,""elapse-time"":2462.7049999980954},{""relative-x"":0.72578125,""relative-y"":0.13375,""elapse-time"":2542.9999999978463},{""relative-x"":0.1875,""relative-y"":0.36,""elapse-time"":2617.0750000019325},{""relative-x"":0.05625,""relative-y"":0.1175,""elapse-time"":2700.6750000000466},{""relative-x"":-0.2421875,""relative-y"":0.36,""elapse-time"":2787.864999998419},{""relative-x"":0.2625,""relative-y"":0.11125,""elapse-time"":2874.11499999871},{""relative-x"":0.78515625,""relative-y"":0.275,""elapse-time"":2962.7800000016578},{""relative-x"":0.45703125,""relative-y"":-0.00375,""elapse-time"":3051.1699999988195},{""relative-x"":0.27734375,""relative-y"":0.0775,""elapse-time"":3136.9849999973667},{""relative-x"":0.84375,""relative-y"":0.15875,""elapse-time"":3220.4449999990175},{""relative-x"":0.3546875,""relative-y"":0.21625,""elapse-time"":3312.839999998687},{""relative-x"":0.34140625,""relative-y"":-0.005,""elapse-time"":3395.6600000019534},{""relative-x"":0.31015625,""relative-y"":0.38875,""elapse-time"":3517.135000001872},{""relative-x"":0.48359375,""relative-y"":0.53125,""elapse-time"":3591.6099999958533},{""relative-x"":0.48203125,""relative-y"":0.42875,""elapse-time"":3675.264999998035},{""relative-x"":1.3046875,""relative-y"":0.37125,""elapse-time"":3757.6849999968545},{""relative-x"":0.61875,""relative-y"":0.26,""elapse-time"":3851.734999996552},{""relative-x"":0.4375,""relative-y"":0.215,""elapse-time"":3938.139999998384},{""relative-x"":0.490625,""relative-y"":0.2625,""elapse-time"":4019.54499999556},{""relative-x"":0.715625,""relative-y"":0.0375,""elapse-time"":4103.934999999183}]}","""","""","""","""","""","2021-01-14 11:42:20",,"Mozilla/5.0 (Macintosh; Intel Mac OS X 10_13_6) AppleWebKit/537.36 (KHTML, like Gecko) Chrome/87.0.4280.141 Safari/537.36",Macintosh,Chrome,87.0.4280.141,"OS X",10_13_6
21,1,null,"""","""","""","""",html-keyboard-response,34,95273,0.0-12.0-2.0-0.10,811,0,0,"Integrierte iSight-Kamera (05ac:8507)",30.000030517578125,0.0020833333333333333,480,640,$4.5,"30 days","""",null,"""","""","""","""","""","""","""","""","""","""","""","2021-01-14 11:42:20",,"Mozilla/5.0 (Macintosh; Intel Mac OS X 10_13_6) AppleWebKit/537.36 (KHTML, like Gecko) Chrome/87.0.4280.141 Safari/537.36",Macintosh,Chrome,87.0.4280.141,"OS X",10_13_6
21,1,"""","""","""",1280,800,eyetracking-calibration,35,99657,0.0-12.0-2.0-1.10,811,0,0,"Integrierte iSight-Kamera (05ac:8507)",30.000030517578125,0.0020833333333333333,480,640,$4.5,"30 days","""","""","""",0.65,0.35,0,0,"{""history"":[{""relative-x"":0.5015625,""relative-y"":0.3225,""elapse-time"":93.81000000576023},{""relative-x"":0.10546875,""relative-y"":0.50375,""elapse-time"":172.41000000649365},{""relative-x"":0.30546875,""relative-y"":0.39875,""elapse-time"":247.16000000626082},{""relative-x"":0.59296875,""relative-y"":0.42875,""elapse-time"":328.50000000325963},{""relative-x"":0.546875,""relative-y"":0.3375,""elapse-time"":413.31000000354834},{""relative-x"":0.59296875,""relative-y"":0.27,""elapse-time"":496.17000000580447},{""relative-x"":0.05625,""relative-y"":0.405,""elapse-time"":591.0800000056042},{""relative-x"":0.15078125,""relative-y"":0.3075,""elapse-time"":668.3499999999185},{""relative-x"":-0.06953125,""relative-y"":0.4025,""elapse-time"":760.9050000028219},{""relative-x"":0.67890625,""relative-y"":0.3325,""elapse-time"":840.425000002142},{""relative-x"":0.35390625,""relative-y"":0.14125,""elapse-time"":911.1200000043027},{""relative-x"":0.4546875,""relative-y"":0.38,""elapse-time"":982.8450000059092},{""relative-x"":-0.09375,""relative-y"":0.17875,""elapse-time"":1056.0550000009243},{""relative-x"":0.4875,""relative-y"":0.1375,""elapse-time"":1122.6600000009057},{""relative-x"":0.03046875,""relative-y"":0.1175,""elapse-time"":1193.700000003446},{""relative-x"":0.76875,""relative-y"":-0.0025,""elapse-time"":1271.0900000020047},{""relative-x"":0.478125,""relative-y"":0.155,""elapse-time"":1346.8700000012177},{""relative-x"":0.52265625,""relative-y"":0.2925,""elapse-time"":1428.3750000031432},{""relative-x"":0.38125,""relative-y"":0.01125,""elapse-time"":1503.0100000003586},{""relative-x"":0.8,""relative-y"":-0.1725,""elapse-time"":1570.6000000063796},{""relative-x"":0.9859375,""relative-y"":-0.155,""elapse-time"":1647.3949999999604},{""relative-x"":0.50859375,""relative-y"":-0.0075,""elapse-time"":1728.9600000003702},{""relative-x"":0.64453125,""relative-y"":0.50125,""elapse-time"":1812.7650000024005},{""relative-x"":0.35390625,""relative-y"":0.40625,""elapse-time"":1901.5700000018114},{""relative-x"":0.67265625,""relative-y"":0.13875,""elapse-time"":1993.3700000037788},{""relative-x"":0.78046875,""relative-y"":0.3125,""elapse-time"":2077.495000005001},{""relative-x"":0.4765625,""relative-y"":0.20125,""elapse-time"":2161.805000003369},{""relative-x"":0.6828125,""relative-y"":0.1825,""elapse-time"":2256.3850000005914},{""relative-x"":0.63046875,""relative-y"":0.2075,""elapse-time"":2340.840000004391},{""relative-x"":0.1984375,""relative-y"":-0.01125,""elapse-time"":2423.865000004298},{""relative-x"":0.09765625,""relative-y"":0.425,""elapse-time"":2505.975000000035},{""relative-x"":0.53203125,""relative-y"":0.2675,""elapse-time"":2584.145000000717},{""relative-x"":0.9625,""relative-y"":0.13625,""elapse-time"":2670.5350000047474},{""relative-x"":0.29453125,""relative-y"":0.405,""elapse-time"":2750.835000006191},{""relative-x"":0.771875,""relative-y"":0.08875,""elapse-time"":2840.6700000050478},{""relative-x"":0.5578125,""relative-y"":0.3475,""elapse-time"":2916.895000002114},{""relative-x"":0.3875,""relative-y"":0.15625,""elapse-time"":3003.2800000044517},{""relative-x"":0.53984375,""relative-y"":0.37375,""elapse-time"":3082.2299999999814},{""relative-x"":-0.065625,""relative-y"":0.27375,""elapse-time"":3152.990000002319},{""relative-x"":0.48984375,""relative-y"":0.1425,""elapse-time"":3238.1900000036694},{""relative-x"":0.7046875,""relative-y"":0.56375,""elapse-time"":3321.170000002894},{""relative-x"":0.59296875,""relative-y"":0.36875,""elapse-time"":3396.2350000001607},{""relative-x"":0.25625,""relative-y"":0.41125,""elapse-time"":3477.725000004284},{""relative-x"":0.72578125,""relative-y"":0.08375,""elapse-time"":3565.8450000046287},{""relative-x"":0.43046875,""relative-y"":0.00375,""elapse-time"":3647.4750000052154},{""relative-x"":0.60546875,""relative-y"":0.45125,""elapse-time"":3722.350000003644},{""relative-x"":0.4828125,""relative-y"":0.46,""elapse-time"":3799.1000000038184},{""relative-x"":0.29453125,""relative-y"":0.35375,""elapse-time"":3872.880000002624},{""relative-x"":0.53984375,""relative-y"":0.155,""elapse-time"":4021.790000006149},{""relative-x"":0.55390625,""relative-y"":0.3625,""elapse-time"":4115.555000003951},{""relative-x"":0.5734375,""relative-y"":0.0625,""elapse-time"":4203.895000006014},{""relative-x"":0.33828125,""relative-y"":0.1325,""elapse-time"":4291.970000005676},{""relative-x"":1.021875,""relative-y"":0.1425,""elapse-time"":4371.910000001662}]}","""","""","""","""","""","2021-01-14 11:42:20",,"Mozilla/5.0 (Macintosh; Intel Mac OS X 10_13_6) AppleWebKit/537.36 (KHTML, like Gecko) Chrome/87.0.4280.141 Safari/537.36",Macintosh,Chrome,87.0.4280.141,"OS X",10_13_6
21,1,null,"""","""","""","""",html-keyboard-response,36,101169,0.0-12.0-2.0-0.11,811,0,0,"Integrierte iSight-Kamera (05ac:8507)",30.000030517578125,0.0020833333333333333,480,640,$4.5,"30 days","""",null,"""","""","""","""","""","""","""","""","""","""","""","2021-01-14 11:42:20",,"Mozilla/5.0 (Macintosh; Intel Mac OS X 10_13_6) AppleWebKit/537.36 (KHTML, like Gecko) Chrome/87.0.4280.141 Safari/537.36",Macintosh,Chrome,87.0.4280.141,"OS X",10_13_6
21,1,"""","""","""",1280,800,eyetracking-calibration,37,105254,0.0-12.0-2.0-1.11,811,0,0,"Integrierte iSight-Kamera (05ac:8507)",30.000030517578125,0.0020833333333333333,480,640,$4.5,"30 days","""","""","""",0.35,0.35,0,0,"{""history"":[{""relative-x"":0.57265625,""relative-y"":0.445,""elapse-time"":87.35000000160653},{""relative-x"":0.7234375,""relative-y"":0.30375,""elapse-time"":155.97500000149012},{""relative-x"":0.35703125,""relative-y"":0.4,""elapse-time"":235.4750000013155},{""relative-x"":0.2765625,""relative-y"":0.39625,""elapse-time"":301.9350000031409},{""relative-x"":0.5171875,""relative-y"":0.46375,""elapse-time"":374.5550000021467},{""relative-x"":0.684375,""relative-y"":0.28625,""elapse-time"":459.00999999867054},{""relative-x"":0.15859375,""relative-y"":0.645,""elapse-time"":529.0050000039628},{""relative-x"":0.47734375,""relative-y"":0.5325,""elapse-time"":628.259999997681},{""relative-x"":0.33125,""relative-y"":0.285,""elapse-time"":723.5950000031153},{""relative-x"":0.51953125,""relative-y"":0.37125,""elapse-time"":820.6150000041816},{""relative-x"":0.56796875,""relative-y"":0.23125,""elapse-time"":919.5200000031036},{""relative-x"":0.38515625,""relative-y"":0.335,""elapse-time"":1012.9349999988335},{""relative-x"":0.415625,""relative-y"":0.35,""elapse-time"":1106.5850000013597},{""relative-x"":0.790625,""relative-y"":0.35125,""elapse-time"":1188.4599999975762},{""relative-x"":0.30859375,""relative-y"":0.11625,""elapse-time"":1273.5350000002654},{""relative-x"":0.65078125,""relative-y"":0.33375,""elapse-time"":1367.2500000029686},{""relative-x"":0.77109375,""relative-y"":0.36875,""elapse-time"":1452.2599999982049},{""relative-x"":0.41328125,""relative-y"":-0.0225,""elapse-time"":1542.764999998326},{""relative-x"":0.47265625,""relative-y"":0.345,""elapse-time"":1634.0700000000652},{""relative-x"":0.36484375,""relative-y"":0.2925,""elapse-time"":1727.2349999984726},{""relative-x"":0.240625,""relative-y"":-0.16,""elapse-time"":1817.2950000007404},{""relative-x"":0.4328125,""relative-y"":0.5375,""elapse-time"":1902.444999999716},{""relative-x"":0.725,""relative-y"":0.1475,""elapse-time"":1993.2800000024145},{""relative-x"":0.36640625,""relative-y"":0.34,""elapse-time"":2070.8900000026915},{""relative-x"":0.46171875,""relative-y"":0.3075,""elapse-time"":2158.8249999986147},{""relative-x"":0.4859375,""relative-y"":0.3725,""elapse-time"":2231.290000003355},{""relative-x"":0.66796875,""relative-y"":0.2275,""elapse-time"":2311.9799999985844},{""relative-x"":0.7078125,""relative-y"":0.25375,""elapse-time"":2395.315000001574},{""relative-x"":0.52734375,""relative-y"":-0.01,""elapse-time"":2490.785000001779},{""relative-x"":0.74140625,""relative-y"":0.05125,""elapse-time"":2568.4800000017276},{""relative-x"":0.10703125,""relative-y"":0.2875,""elapse-time"":2670.415000000503},{""relative-x"":0.67734375,""relative-y"":0.19625,""elapse-time"":2759.749999997439},{""relative-x"":0.41484375,""relative-y"":0.2775,""elapse-time"":2847.054999998363},{""relative-x"":0.590625,""relative-y"":0.015,""elapse-time"":2922.599999998056},{""relative-x"":0.90234375,""relative-y"":0.39,""elapse-time"":3007.514999997511},{""relative-x"":0.39765625,""relative-y"":0.5175,""elapse-time"":3098.8450000004377},{""relative-x"":0.796875,""relative-y"":0.3625,""elapse-time"":3189.5650000005844},{""relative-x"":0.225,""relative-y"":0.3225,""elapse-time"":3284.5149999993737},{""relative-x"":0.50546875,""relative-y"":0.49,""elapse-time"":3373.7850000034086},{""relative-x"":0.625,""relative-y"":0.3175,""elapse-time"":3462.885000000824},{""relative-x"":0.44609375,""relative-y"":0.465,""elapse-time"":3551.7800000015995},{""relative-x"":0.23671875,""relative-y"":0.57,""elapse-time"":3646.730000000389},{""relative-x"":0.453125,""relative-y"":0.4875,""elapse-time"":3728.9349999991828},{""relative-x"":0.29921875,""relative-y"":0.51125,""elapse-time"":3821.9349999999395},{""relative-x"":0.3734375,""relative-y"":0.30375,""elapse-time"":3910.694999998668},{""relative-x"":0.3015625,""relative-y"":0.5175,""elapse-time"":3990.6100000007427},{""relative-x"":0.484375,""relative-y"":0.15875,""elapse-time"":4072.215000000142}]}","""","""","""","""","""","2021-01-14 11:42:20",,"Mozilla/5.0 (Macintosh; Intel Mac OS X 10_13_6) AppleWebKit/537.36 (KHTML, like Gecko) Chrome/87.0.4280.141 Safari/537.36",Macintosh,Chrome,87.0.4280.141,"OS X",10_13_6
21,1,null,"<div style=""font-size:30px;""><p><strong>30%</strong><br><br>Calibration complete</p></div>","""","""","""",html-keyboard-response,38,106759,0.0-12.0-2.0-0.12,811,0,0,"Integrierte iSight-Kamera (05ac:8507)",30.000030517578125,0.0020833333333333333,480,640,$4.5,"30 days","""",null,"""","""","""","""","""","""","""","""","""","""","""","2021-01-14 11:42:20",,"Mozilla/5.0 (Macintosh; Intel Mac OS X 10_13_6) AppleWebKit/537.36 (KHTML, like Gecko) Chrome/87.0.4280.141 Safari/537.36",Macintosh,Chrome,87.0.4280.141,"OS X",10_13_6
21,1,"""","""","""",1280,800,eyetracking-calibration,39,110731,0.0-12.0-2.0-1.12,811,0,0,"Integrierte iSight-Kamera (05ac:8507)",30.000030517578125,0.0020833333333333333,480,640,$4.5,"30 days","""","""","""",0.2,0.5,0,0,"{""history"":[{""relative-x"":0.325,""relative-y"":0.39375,""elapse-time"":93.14000000449596},{""relative-x"":0.79609375,""relative-y"":0.45625,""elapse-time"":168.61000000062631},{""relative-x"":0.71484375,""relative-y"":0.19625,""elapse-time"":288.155000002007},{""relative-x"":0.44609375,""relative-y"":0.10375,""elapse-time"":370.57500000082655},{""relative-x"":0.57734375,""relative-y"":0.2125,""elapse-time"":449.5999999999185},{""relative-x"":0.4734375,""relative-y"":0.2925,""elapse-time"":533.8000000047032},{""relative-x"":0.30859375,""relative-y"":0.26125,""elapse-time"":613.6000000042259},{""relative-x"":0.428125,""relative-y"":0.27875,""elapse-time"":699.5250000036322},{""relative-x"":0.66171875,""relative-y"":0.23125,""elapse-time"":788.0150000055437},{""relative-x"":0.4234375,""relative-y"":0.315,""elapse-time"":873.8650000013877},{""relative-x"":0.28125,""relative-y"":0.57875,""elapse-time"":968.6550000042189},{""relative-x"":0.575,""relative-y"":0.455,""elapse-time"":1062.9900000058115},{""relative-x"":0.565625,""relative-y"":0.53375,""elapse-time"":1147.6400000028661},{""relative-x"":0.65390625,""relative-y"":0.2,""elapse-time"":1237.7750000014203},{""relative-x"":0.35703125,""relative-y"":0.2525,""elapse-time"":1331.7500000048312},{""relative-x"":0.653125,""relative-y"":0.46625,""elapse-time"":1419.0850000013597},{""relative-x"":0.73203125,""relative-y"":0.20375,""elapse-time"":1504.4850000049337},{""relative-x"":0.58125,""relative-y"":0.205,""elapse-time"":1603.255000001809},{""relative-x"":0.41171875,""relative-y"":0.44125,""elapse-time"":1693.1500000064261},{""relative-x"":0.2015625,""relative-y"":0.34625,""elapse-time"":1790.1000000056229},{""relative-x"":0.103125,""relative-y"":0.31875,""elapse-time"":1880.8500000013737},{""relative-x"":0.4578125,""relative-y"":0.525,""elapse-time"":1966.245000003255},{""relative-x"":0.32578125,""relative-y"":0.56125,""elapse-time"":2051.8100000044797},{""relative-x"":0.38671875,""relative-y"":0.4675,""elapse-time"":2128.98000000132},{""relative-x"":0.1703125,""relative-y"":0.48375,""elapse-time"":2222.4050000004354},{""relative-x"":0.46484375,""relative-y"":0.34875,""elapse-time"":2303.750000006403},{""relative-x"":0.265625,""relative-y"":0.46625,""elapse-time"":2389.419999999518},{""relative-x"":0.271875,""relative-y"":0.16,""elapse-time"":2473.7200000017765},{""relative-x"":0.34609375,""relative-y"":0.425,""elapse-time"":2551.74000000261},{""relative-x"":0.36328125,""relative-y"":0.675,""elapse-time"":2640.6050000005052},{""relative-x"":0.325,""relative-y"":0.445,""elapse-time"":2734.6099999995204},{""relative-x"":0.35390625,""relative-y"":0.47,""elapse-time"":2831.060000004072},{""relative-x"":0.30234375,""relative-y"":0.4575,""elapse-time"":2918.74000000098},{""relative-x"":0.32109375,""relative-y"":0.2025,""elapse-time"":3010.0450000027195},{""relative-x"":0.30703125,""relative-y"":0.265,""elapse-time"":3102.2250000023632},{""relative-x"":0.471875,""relative-y"":0.35125,""elapse-time"":3192.0900000041},{""relative-x"":0.25078125,""relative-y"":0.3125,""elapse-time"":3271.595000005618},{""relative-x"":0.6828125,""relative-y"":0.17875,""elapse-time"":3360.4950000008103},{""relative-x"":0.27578125,""relative-y"":0.26875,""elapse-time"":3447.025000001304},{""relative-x"":0.19921875,""relative-y"":0.41125,""elapse-time"":3539.260000005015},{""relative-x"":0.65390625,""relative-y"":0.34875,""elapse-time"":3617.5100000036764},{""relative-x"":0.38125,""relative-y"":0.4,""elapse-time"":3707.7150000041},{""relative-x"":0.459375,""relative-y"":0.425,""elapse-time"":3789.360000002489},{""relative-x"":0.5046875,""relative-y"":0.49125,""elapse-time"":3871.0550000032526},{""relative-x"":0.75546875,""relative-y"":0.30625,""elapse-time"":3957.1950000026845}]}","""","""","""","""","""","2021-01-14 11:42:20",,"Mozilla/5.0 (Macintosh; Intel Mac OS X 10_13_6) AppleWebKit/537.36 (KHTML, like Gecko) Chrome/87.0.4280.141 Safari/537.36",Macintosh,Chrome,87.0.4280.141,"OS X",10_13_6
21,1,null,"""","""","""","""",html-keyboard-response,40,112239,0.0-12.0-2.0-0.13,811,0,0,"Integrierte iSight-Kamera (05ac:8507)",30.000030517578125,0.0020833333333333333,480,640,$4.5,"30 days","""",null,"""","""","""","""","""","""","""","""","""","""","""","2021-01-14 11:42:20",,"Mozilla/5.0 (Macintosh; Intel Mac OS X 10_13_6) AppleWebKit/537.36 (KHTML, like Gecko) Chrome/87.0.4280.141 Safari/537.36",Macintosh,Chrome,87.0.4280.141,"OS X",10_13_6
21,1,"""","""","""",1280,800,eyetracking-calibration,41,116420,0.0-12.0-2.0-1.13,811,0,0,"Integrierte iSight-Kamera (05ac:8507)",30.000030517578125,0.0020833333333333333,480,640,$4.5,"30 days","""","""","""",0.8,0.5,0,0,"{""history"":[{""relative-x"":0.29765625,""relative-y"":0.53875,""elapse-time"":94.12000000156695},{""relative-x"":0.0875,""relative-y"":0.51375,""elapse-time"":169.7649999987334},{""relative-x"":0.5625,""relative-y"":0.485,""elapse-time"":249.31500000093365},{""relative-x"":0.57421875,""relative-y"":0.39875,""elapse-time"":326.20999999926426},{""relative-x"":0.40625,""relative-y"":0.3025,""elapse-time"":398.12000000529224},{""relative-x"":0.24765625,""relative-y"":0.3975,""elapse-time"":477.1400000026915},{""relative-x"":0.34453125,""relative-y"":0.57375,""elapse-time"":563.1199999988894},{""relative-x"":0.5375,""relative-y"":0.2875,""elapse-time"":648.7600000036764},{""relative-x"":0.38671875,""relative-y"":0.5375,""elapse-time"":738.0499999999302},{""relative-x"":0.35859375,""relative-y"":0.41625,""elapse-time"":820.9700000006706},{""relative-x"":0.559375,""relative-y"":0.28625,""elapse-time"":902.620000000752},{""relative-x"":0.5578125,""relative-y"":0.29625,""elapse-time"":982.2800000038114},{""relative-x"":0.45390625,""relative-y"":0.37375,""elapse-time"":1057.9649999999674},{""relative-x"":-0.11640625,""relative-y"":0.26625,""elapse-time"":1198.114999999234},{""relative-x"":0.19609375,""relative-y"":0.55625,""elapse-time"":1300.9300000048825},{""relative-x"":0.61171875,""relative-y"":0.53,""elapse-time"":1404.2300000000978},{""relative-x"":0.08125,""relative-y"":0.56625,""elapse-time"":1499.3850000028033},{""relative-x"":0.41484375,""relative-y"":0.1975,""elapse-time"":1592.785000000731},{""relative-x"":0.590625,""relative-y"":0.49,""elapse-time"":1675.0600000013947},{""relative-x"":0.4140625,""relative-y"":0.385,""elapse-time"":1768.674999999348},{""relative-x"":0.303125,""relative-y"":0.2725,""elapse-time"":1865.7400000010966},{""relative-x"":0.30859375,""relative-y"":0.38875,""elapse-time"":1964.480000002368},{""relative-x"":0.3625,""relative-y"":0.29,""elapse-time"":2059.6800000057556},{""relative-x"":0.6890625,""relative-y"":0.34,""elapse-time"":2155.370000000403},{""relative-x"":0.46328125,""relative-y"":0.545,""elapse-time"":2245.490000001155},{""relative-x"":0.45546875,""relative-y"":0.185,""elapse-time"":2336.524999998801},{""relative-x"":0.09140625,""relative-y"":0.5325,""elapse-time"":2416.1500000045635},{""relative-x"":0.73671875,""relative-y"":0.28125,""elapse-time"":2504.095000003872},{""relative-x"":0.54609375,""relative-y"":0.375,""elapse-time"":2590.0150000015856},{""relative-x"":0.43359375,""relative-y"":0.36,""elapse-time"":2678.7100000001374},{""relative-x"":0.2375,""relative-y"":0.2925,""elapse-time"":2766.475000003993},{""relative-x"":0.48671875,""relative-y"":0.30375,""elapse-time"":2860.1249999992433},{""relative-x"":0.27421875,""relative-y"":0.36875,""elapse-time"":2955.135000003793},{""relative-x"":0.55390625,""relative-y"":0.2575,""elapse-time"":3054.820000004838},{""relative-x"":0.76640625,""relative-y"":0.3775,""elapse-time"":3146.1100000014994},{""relative-x"":0.01015625,""relative-y"":0.36625,""elapse-time"":3236.620000003313},{""relative-x"":0.8234375,""relative-y"":0.19625,""elapse-time"":3333.100000003469},{""relative-x"":0.459375,""relative-y"":0.5325,""elapse-time"":3418.630000000121},{""relative-x"":0.49921875,""relative-y"":0.3975,""elapse-time"":3514.1849999999977},{""relative-x"":0.44296875,""relative-y"":0.36,""elapse-time"":3607.8899999993155},{""relative-x"":0.4484375,""relative-y"":0.3625,""elapse-time"":3703.9050000021234},{""relative-x"":0.54765625,""relative-y"":0.66375,""elapse-time"":3801.43500000122},{""relative-x"":0.4515625,""relative-y"":0.45,""elapse-time"":3899.8800000044866},{""relative-x"":0.703125,""relative-y"":0.445,""elapse-time"":3992.695000000822},{""relative-x"":0.24609375,""relative-y"":0.52,""elapse-time"":4078.000000001339},{""relative-x"":0.66796875,""relative-y"":0.44,""elapse-time"":4165.795000000799}]}","""","""","""","""","""","2021-01-14 11:42:20",,"Mozilla/5.0 (Macintosh; Intel Mac OS X 10_13_6) AppleWebKit/537.36 (KHTML, like Gecko) Chrome/87.0.4280.141 Safari/537.36",Macintosh,Chrome,87.0.4280.141,"OS X",10_13_6
21,1,null,"""","""","""","""",html-keyboard-response,42,117931,0.0-12.0-2.0-0.14,811,0,0,"Integrierte iSight-Kamera (05ac:8507)",30.000030517578125,0.0020833333333333333,480,640,$4.5,"30 days","""",null,"""","""","""","""","""","""","""","""","""","""","""","2021-01-14 11:42:20",,"Mozilla/5.0 (Macintosh; Intel Mac OS X 10_13_6) AppleWebKit/537.36 (KHTML, like Gecko) Chrome/87.0.4280.141 Safari/537.36",Macintosh,Chrome,87.0.4280.141,"OS X",10_13_6
21,1,"""","""","""",1280,800,eyetracking-calibration,43,122340,0.0-12.0-2.0-1.14,811,0,0,"Integrierte iSight-Kamera (05ac:8507)",30.000030517578125,0.0020833333333333333,480,640,$4.5,"30 days","""","""","""",0.2,0.2,0,0,"{""history"":[{""relative-x"":0.1625,""relative-y"":0.39,""elapse-time"":96.5649999998277},{""relative-x"":0.6703125,""relative-y"":0.10375,""elapse-time"":186.3999999986845},{""relative-x"":0.234375,""relative-y"":0.375,""elapse-time"":270.21999999851687},{""relative-x"":0.7609375,""relative-y"":0.37375,""elapse-time"":350.42000000248663},{""relative-x"":0.66796875,""relative-y"":0.1975,""elapse-time"":442.430000002787},{""relative-x"":0.2,""relative-y"":0.27125,""elapse-time"":530.8900000018184},{""relative-x"":0.4234375,""relative-y"":0.26375,""elapse-time"":628.5849999985658},{""relative-x"":0.84453125,""relative-y"":0.34375,""elapse-time"":723.7500000046566},{""relative-x"":0.60703125,""relative-y"":0.5125,""elapse-time"":803.6100000026636},{""relative-x"":0.2875,""relative-y"":0.6175,""elapse-time"":888.585000000603},{""relative-x"":0.725,""relative-y"":0.25625,""elapse-time"":974.8400000025867},{""relative-x"":0.21953125,""relative-y"":0.2325,""elapse-time"":1069.4799999982934},{""relative-x"":0.4796875,""relative-y"":0.27375,""elapse-time"":1166.8250000002445},{""relative-x"":0.77890625,""relative-y"":0.21625,""elapse-time"":1261.595000003581},{""relative-x"":0.5328125,""relative-y"":0.39625,""elapse-time"":1364.3550000051619},{""relative-x"":0.50390625,""relative-y"":0.25875,""elapse-time"":1470.485000005283},{""relative-x"":0.46796875,""relative-y"":0.24125,""elapse-time"":1566.1550000004354},{""relative-x"":0.58125,""relative-y"":0.145,""elapse-time"":1649.9350000012782},{""relative-x"":0.20703125,""relative-y"":0.5425,""elapse-time"":1740.0150000030408},{""relative-x"":0.253125,""relative-y"":0.3275,""elapse-time"":1831.4949999985402},{""relative-x"":0.14296875,""relative-y"":0.4875,""elapse-time"":1929.1050000028918},{""relative-x"":0.1484375,""relative-y"":0.12,""elapse-time"":2030.9899999992922},{""relative-x"":0.734375,""relative-y"":0.40375,""elapse-time"":2121.129999999539},{""relative-x"":0.46328125,""relative-y"":0.24375,""elapse-time"":2264.2049999994924},{""relative-x"":0.38984375,""relative-y"":0.4525,""elapse-time"":2360.5200000019977},{""relative-x"":0.4234375,""relative-y"":0.5775,""elapse-time"":2451.099999998405},{""relative-x"":0.89375,""relative-y"":0.00875,""elapse-time"":2541.53000000224},{""relative-x"":0.11640625,""relative-y"":0.63625,""elapse-time"":2631.854999999632},{""relative-x"":0.04375,""relative-y"":0.05125,""elapse-time"":2716.870000003837},{""relative-x"":0.37578125,""relative-y"":0.44,""elapse-time"":2804.2500000010477},{""relative-x"":0.3875,""relative-y"":0.585,""elapse-time"":2890.0199999989127},{""relative-x"":-0.03203125,""relative-y"":0.14875,""elapse-time"":2977.4749999996857},{""relative-x"":0.434375,""relative-y"":0.46625,""elapse-time"":3067.6650000023074},{""relative-x"":0.309375,""relative-y"":0.27375,""elapse-time"":3156.2100000010105},{""relative-x"":0.7046875,""relative-y"":0.38125,""elapse-time"":3246.384999998554},{""relative-x"":0.70546875,""relative-y"":0.5325,""elapse-time"":3331.285000000207},{""relative-x"":0.77578125,""relative-y"":0.01875,""elapse-time"":3423.3400000011898},{""relative-x"":0.2265625,""relative-y"":0.36,""elapse-time"":3519.2300000053365},{""relative-x"":0.39453125,""relative-y"":0.3775,""elapse-time"":3621.785000003001},{""relative-x"":0.28203125,""relative-y"":0.3925,""elapse-time"":3723.790000003646},{""relative-x"":0.33671875,""relative-y"":0.4725,""elapse-time"":3819.145000001299},{""relative-x"":0.25703125,""relative-y"":0.325,""elapse-time"":3920.845000000554},{""relative-x"":0.0671875,""relative-y"":0.18375,""elapse-time"":4010.0149999998393},{""relative-x"":0.21875,""relative-y"":0.295,""elapse-time"":4110.749999999825},{""relative-x"":0.31484375,""relative-y"":0.18375,""elapse-time"":4201.480000003357},{""relative-x"":0.16796875,""relative-y"":0.47375,""elapse-time"":4302.4399999994785},{""relative-x"":0.309375,""relative-y"":0.155,""elapse-time"":4399.055000001681}]}","""","""","""","""","""","2021-01-14 11:42:20",,"Mozilla/5.0 (Macintosh; Intel Mac OS X 10_13_6) AppleWebKit/537.36 (KHTML, like Gecko) Chrome/87.0.4280.141 Safari/537.36",Macintosh,Chrome,87.0.4280.141,"OS X",10_13_6
21,1,null,"""","""","""","""",html-keyboard-response,44,123849,0.0-12.0-2.0-0.15,811,0,0,"Integrierte iSight-Kamera (05ac:8507)",30.000030517578125,0.0020833333333333333,480,640,$4.5,"30 days","""",null,"""","""","""","""","""","""","""","""","""","""","""","2021-01-14 11:42:20",,"Mozilla/5.0 (Macintosh; Intel Mac OS X 10_13_6) AppleWebKit/537.36 (KHTML, like Gecko) Chrome/87.0.4280.141 Safari/537.36",Macintosh,Chrome,87.0.4280.141,"OS X",10_13_6
21,1,"""","""","""",1280,800,eyetracking-calibration,45,127603,0.0-12.0-2.0-1.15,811,0,0,"Integrierte iSight-Kamera (05ac:8507)",30.000030517578125,0.0020833333333333333,480,640,$4.5,"30 days","""","""","""",0.2,0.5,0,0,"{""history"":[{""relative-x"":0.41484375,""relative-y"":0.36,""elapse-time"":100.2200000002631},{""relative-x"":0.346875,""relative-y"":0.34625,""elapse-time"":178.90500000066822},{""relative-x"":0.615625,""relative-y"":0.35,""elapse-time"":259.6499999999651},{""relative-x"":0.45078125,""relative-y"":0.28,""elapse-time"":335.0350000036997},{""relative-x"":-0.0265625,""relative-y"":0.40625,""elapse-time"":421.02000000159023},{""relative-x"":0.21875,""relative-y"":0.2675,""elapse-time"":517.0250000010128},{""relative-x"":0.37109375,""relative-y"":0.29375,""elapse-time"":607.1799999990617},{""relative-x"":0.25859375,""relative-y"":0.54,""elapse-time"":702.0800000027521},{""relative-x"":0.25546875,""relative-y"":0.335,""elapse-time"":807.18500000512},{""relative-x"":0.51171875,""relative-y"":0.5325,""elapse-time"":904.8400000028778},{""relative-x"":0.21171875,""relative-y"":0.6225,""elapse-time"":985.8549999989918},{""relative-x"":0.5734375,""relative-y"":0.31625,""elapse-time"":1069.6650000027148},{""relative-x"":0.2015625,""relative-y"":0.24625,""elapse-time"":1153.1549999999697},{""relative-x"":0.2671875,""relative-y"":0.3675,""elapse-time"":1256.760000003851},{""relative-x"":0.49453125,""relative-y"":0.0575,""elapse-time"":1363.2350000043516},{""relative-x"":0.3234375,""relative-y"":0.425,""elapse-time"":1459.3000000022585},{""relative-x"":0.47578125,""relative-y"":0.4575,""elapse-time"":1561.4500000010594},{""relative-x"":0.57890625,""relative-y"":0.54625,""elapse-time"":1651.080000003276},{""relative-x"":0.575,""relative-y"":0.47625,""elapse-time"":1749.7399999992922},{""relative-x"":0.45859375,""relative-y"":0.38375,""elapse-time"":1847.3050000029616},{""relative-x"":0.38046875,""relative-y"":0.40125,""elapse-time"":1935.86000000505},{""relative-x"":0.321875,""relative-y"":0.335,""elapse-time"":2020.585000005667},{""relative-x"":0.54453125,""relative-y"":0.375,""elapse-time"":2107.3150000011083},{""relative-x"":0.23359375,""relative-y"":0.38375,""elapse-time"":2195.915000003879},{""relative-x"":0.6390625,""relative-y"":0.31,""elapse-time"":2286.9600000049104},{""relative-x"":0.4984375,""relative-y"":0.305,""elapse-time"":2383.144999999786},{""relative-x"":0.175,""relative-y"":0.405,""elapse-time"":2476.7199999987497},{""relative-x"":-0.05625,""relative-y"":0.375,""elapse-time"":2573.8950000013574},{""relative-x"":-0.11328125,""relative-y"":0.3,""elapse-time"":2669.6999999985565},{""relative-x"":0.2078125,""relative-y"":0.34,""elapse-time"":2771.8600000007427},{""relative-x"":0.5046875,""relative-y"":0.19625,""elapse-time"":2864.8949999987963},{""relative-x"":0.1609375,""relative-y"":0.16875,""elapse-time"":3003.935000000638},{""relative-x"":0.30625,""relative-y"":0.5375,""elapse-time"":3102.585000000545},{""relative-x"":0.403125,""relative-y"":0.40625,""elapse-time"":3188.979999998992},{""relative-x"":0.1359375,""relative-y"":0.18375,""elapse-time"":3283.9100000055623},{""relative-x"":-0.040625,""relative-y"":0.44,""elapse-time"":3372.204999999667},{""relative-x"":0.5171875,""relative-y"":0.60375,""elapse-time"":3466.180000003078},{""relative-x"":0.19296875,""relative-y"":0.5975,""elapse-time"":3557.3650000005728},{""relative-x"":0.75546875,""relative-y"":0.125,""elapse-time"":3645.985000002838},{""relative-x"":0.36640625,""relative-y"":0.3125,""elapse-time"":3743.740000005346}]}","""","""","""","""","""","2021-01-14 11:42:20",,"Mozilla/5.0 (Macintosh; Intel Mac OS X 10_13_6) AppleWebKit/537.36 (KHTML, like Gecko) Chrome/87.0.4280.141 Safari/537.36",Macintosh,Chrome,87.0.4280.141,"OS X",10_13_6
21,1,null,"""","""","""","""",html-keyboard-response,46,129116,0.0-12.0-2.0-0.16,811,0,0,"Integrierte iSight-Kamera (05ac:8507)",30.000030517578125,0.0020833333333333333,480,640,$4.5,"30 days","""",null,"""","""","""","""","""","""","""","""","""","""","""","2021-01-14 11:42:20",,"Mozilla/5.0 (Macintosh; Intel Mac OS X 10_13_6) AppleWebKit/537.36 (KHTML, like Gecko) Chrome/87.0.4280.141 Safari/537.36",Macintosh,Chrome,87.0.4280.141,"OS X",10_13_6
21,1,"""","""","""",1280,800,eyetracking-calibration,47,133484,0.0-12.0-2.0-1.16,811,0,0,"Integrierte iSight-Kamera (05ac:8507)",30.000030517578125,0.0020833333333333333,480,640,$4.5,"30 days","""","""","""",0.35,0.35,0,0,"{""history"":[{""relative-x"":0.8265625,""relative-y"":0.33625,""elapse-time"":108.52500000328291},{""relative-x"":0.4765625,""relative-y"":0.305,""elapse-time"":196.2100000018836},{""relative-x"":0.4109375,""relative-y"":0.2325,""elapse-time"":286.5400000009686},{""relative-x"":0.49296875,""relative-y"":0.45625,""elapse-time"":375},{""relative-x"":0.4734375,""relative-y"":0.43,""elapse-time"":469.74000000045635},{""relative-x"":0.14375,""relative-y"":0.35,""elapse-time"":571.8150000029709},{""relative-x"":0.53984375,""relative-y"":0.385,""elapse-time"":678.0450000005658},{""relative-x"":0.3734375,""relative-y"":0.29125,""elapse-time"":779.1199999992386},{""relative-x"":0.77421875,""relative-y"":0.405,""elapse-time"":867.4250000040047},{""relative-x"":0.33125,""relative-y"":0.43125,""elapse-time"":969.0499999996973},{""relative-x"":0.46796875,""relative-y"":0.335,""elapse-time"":1068.8050000026124},{""relative-x"":0.36796875,""relative-y"":0.4675,""elapse-time"":1155.6750000017928},{""relative-x"":0.2234375,""relative-y"":0.635,""elapse-time"":1253.0699999988428},{""relative-x"":0.1359375,""relative-y"":0.415,""elapse-time"":1355.6300000054762},{""relative-x"":0.57890625,""relative-y"":0.5625,""elapse-time"":1463.0250000045635},{""relative-x"":0.33515625,""relative-y"":0.155,""elapse-time"":1553.1400000036228},{""relative-x"":0.14921875,""relative-y"":0.25625,""elapse-time"":1657.7299999989918},{""relative-x"":0.43984375,""relative-y"":0.4875,""elapse-time"":1736.3250000053085},{""relative-x"":0.27421875,""relative-y"":0.4275,""elapse-time"":1827.595000002475},{""relative-x"":0.6,""relative-y"":0.2025,""elapse-time"":1919.9250000019674},{""relative-x"":0.34609375,""relative-y"":0.4225,""elapse-time"":2005.219999999099},{""relative-x"":0.07734375,""relative-y"":0.47125,""elapse-time"":2089.5799999998417},{""relative-x"":0.41875,""relative-y"":0.51,""elapse-time"":2174.6300000013434},{""relative-x"":0.3546875,""relative-y"":0.1675,""elapse-time"":2277.475000002596},{""relative-x"":0.471875,""relative-y"":0.1875,""elapse-time"":2385.1400000057765},{""relative-x"":-0.05625,""relative-y"":0.34125,""elapse-time"":2482.3450000039884},{""relative-x"":0.58984375,""relative-y"":0.4825,""elapse-time"":2581.275000004098},{""relative-x"":-0.02734375,""relative-y"":0.53,""elapse-time"":2674.0200000058394},{""relative-x"":0.4203125,""relative-y"":0.61,""elapse-time"":2768.2850000055623},{""relative-x"":0.5984375,""relative-y"":0.3275,""elapse-time"":2860.6500000023516},{""relative-x"":0.80390625,""relative-y"":0.0825,""elapse-time"":2963.4550000046147},{""relative-x"":0.3765625,""relative-y"":0.42125,""elapse-time"":3069.4250000015018},{""relative-x"":0.41953125,""relative-y"":0.4075,""elapse-time"":3160.4800000059186},{""relative-x"":0.37578125,""relative-y"":0.38,""elapse-time"":3258.3700000031968},{""relative-x"":0.1359375,""relative-y"":0.3675,""elapse-time"":3350.31500000332},{""relative-x"":0.56953125,""relative-y"":0.3675,""elapse-time"":3444.070000005013},{""relative-x"":0.5,""relative-y"":0.41375,""elapse-time"":3531.8299999999},{""relative-x"":0.0359375,""relative-y"":0.41125,""elapse-time"":3617.0249999995576},{""relative-x"":0.4328125,""relative-y"":0.37625,""elapse-time"":3708.2200000004377},{""relative-x"":0.6125,""relative-y"":0.37,""elapse-time"":3803.895000004559},{""relative-x"":0.50546875,""relative-y"":0.3375,""elapse-time"":3899.5750000030966},{""relative-x"":0.45390625,""relative-y"":0.455,""elapse-time"":3991.200000004028},{""relative-x"":0.3015625,""relative-y"":0.64125,""elapse-time"":4085.530000003928},{""relative-x"":0.49140625,""relative-y"":0.43125,""elapse-time"":4175.445000000764},{""relative-x"":0.26015625,""relative-y"":0.32625,""elapse-time"":4264.125000001513},{""relative-x"":0.1109375,""relative-y"":0.3325,""elapse-time"":4357.425000001967}]}","""","""","""","""","""","2021-01-14 11:42:20",,"Mozilla/5.0 (Macintosh; Intel Mac OS X 10_13_6) AppleWebKit/537.36 (KHTML, like Gecko) Chrome/87.0.4280.141 Safari/537.36",Macintosh,Chrome,87.0.4280.141,"OS X",10_13_6
21,1,null,"""","""","""","""",html-keyboard-response,48,134990,0.0-12.0-2.0-0.17,811,0,0,"Integrierte iSight-Kamera (05ac:8507)",30.000030517578125,0.0020833333333333333,480,640,$4.5,"30 days","""",null,"""","""","""","""","""","""","""","""","""","""","""","2021-01-14 11:42:20",,"Mozilla/5.0 (Macintosh; Intel Mac OS X 10_13_6) AppleWebKit/537.36 (KHTML, like Gecko) Chrome/87.0.4280.141 Safari/537.36",Macintosh,Chrome,87.0.4280.141,"OS X",10_13_6
