run_id,subject,chinFirst,chin,trial_index,option_topLeft,option_bottomLeft,option_topRight,option_bottomRight,window_width,window_height,window_width_max,window_height_max,window_diagonal,window_diagonal_max,time_elapsed,trial_duration_exact,recorded_at,rt,key_press,fps,LL_top,aLL,aSS,tSS,tLL,choseTop,choseLL,choiceNr,optionIndex,attributeIndex,trans_type_0,trans_type_1,trans_type_2,trans_type_3,trans_type_4,trans_type_6,trans_type_7,payneIndex,k,age,gender,ethnic,degree
16,473,1,1.0,148,4.0,3.0,365.0,0.0,1280.0,720.0,1280.0,720.0,1468.6047800548656,1468.6047800548656,415168,2069,2020-11-19 15:31:52,2028.1600000016626,90.0,19.33301111648139,1,4.0,3.0,0,365.0,1.0,1,1.0,0.6470588235294118,0.4117647058823529,13,0,0,2,1,0,1,-0.3333333333333333,0.0009132420091324198,1995,male,caucasian,college
16,473,1,1.0,151,5.0,4.0,15.0,0.0,1280.0,720.0,1280.0,720.0,1468.6047800548656,1468.6047800548656,420596,2376,2020-11-19 15:31:52,2372.82000000414,90.0,18.097643097643097,1,5.0,4.0,0,15.0,1.0,1,2.0,0.5294117647058824,0.058823529411764705,10,0,0,2,2,2,1,-0.3333333333333333,0.016666666666666666,1995,male,caucasian,college
16,473,1,1.0,154,1.5,5.0,0.0,365.0,1280.0,720.0,1280.0,720.0,1468.6047800548656,1468.6047800548656,425713,2085,2020-11-19 15:31:52,2083.1449999968754,66.0,20.14388489208633,0,5.0,1.5,0,365.0,0.0,0,3.0,-0.8947368421052632,0.3684210526315789,15,3,0,0,0,1,0,0.5,0.006392694063926941,1995,male,caucasian,college
16,473,1,1.0,157,4.0,2.5,90.0,0.0,1280.0,720.0,1280.0,720.0,1468.6047800548656,1468.6047800548656,431543,2765,2020-11-19 15:31:52,2761.8399999919347,90.0,17.72151898734177,1,4.0,2.5,0,90.0,1.0,1,4.0,0.6666666666666666,0.1111111111111111,14,0,1,1,1,1,0,-0.3333333333333333,0.006666666666666668,1995,male,caucasian,college
16,473,1,1.0,160,1.5,4.5,0.0,180.0,1280.0,720.0,1280.0,720.0,1468.6047800548656,1468.6047800548656,437655,3062,2020-11-19 15:31:52,3055.374999996275,66.0,18.6152841280209,0,4.5,1.5,0,180.0,0.0,0,5.0,-0.5833333333333334,0.4166666666666667,18,2,0,2,0,0,2,0.0,0.011111111111111112,1995,male,caucasian,college
16,473,1,1.0,163,5.0,1.5,365.0,0.0,1280.0,720.0,1280.0,720.0,1468.6047800548656,1468.6047800548656,443090,2392,2020-11-19 15:31:52,2386.2999999983003,90.0,13.79598662207358,1,5.0,1.5,0,365.0,1.0,1,6.0,0.6842105263157895,0.5789473684210527,14,0,0,2,2,1,0,-0.2,0.006392694063926941,1995,male,caucasian,college
16,473,1,1.0,166,1.5,5.0,0.0,180.0,1280.0,720.0,1280.0,720.0,1468.6047800548656,1468.6047800548656,448435,2294,2020-11-19 15:31:52,2291.6449999902397,66.0,17.000871839581517,0,5.0,1.5,0,180.0,0.0,0,7.0,-0.625,0.0,11,1,0,2,0,0,2,-0.3333333333333333,0.012962962962962964,1995,male,caucasian,college
16,473,1,1.0,169,5.0,3.5,180.0,0.0,1280.0,720.0,1280.0,720.0,1468.6047800548656,1468.6047800548656,453397,1896,2020-11-19 15:31:52,1888.0000000062867,90.0,12.130801687763713,1,5.0,3.5,0,180.0,1.0,1,8.0,0.09090909090909091,0.2727272727272727,6,1,0,2,1,1,0,-0.2,0.002380952380952381,1995,male,caucasian,college
16,473,1,1.0,172,4.0,4.5,0.0,90.0,1280.0,720.0,1280.0,720.0,1468.6047800548656,1468.6047800548656,459798,3220,2020-11-19 15:31:52,3214.9800000042887,66.0,16.770186335403725,0,4.5,4.0,0,90.0,0.0,0,9.0,-0.30434782608695654,0.13043478260869565,17,2,0,2,1,0,1,0.2,0.001388888888888889,1995,male,caucasian,college
16,473,1,1.0,175,4.0,3.0,30.0,0.0,1280.0,720.0,1280.0,720.0,1468.6047800548656,1468.6047800548656,464586,1738,2020-11-19 15:31:52,1734.020000003511,90.0,18.9873417721519,1,4.0,3.0,0,30.0,1.0,1,10.0,-0.30434782608695654,0.13043478260869565,17,1,1,2,0,2,0,-0.6,0.011111111111111108,1995,male,caucasian,college
16,473,1,1.0,178,5.0,4.0,90.0,0.0,1280.0,720.0,1280.0,720.0,1468.6047800548656,1468.6047800548656,470274,2617,2020-11-19 15:31:52,2614.99499999627,90.0,21.016431027894537,1,5.0,4.0,0,90.0,1.0,1,11.0,-0.5652173913043478,0.13043478260869565,19,1,0,1,1,1,0,0.0,0.002777777777777778,1995,male,caucasian,college
16,473,1,1.0,181,2.5,4.0,0.0,180.0,1280.0,720.0,1280.0,720.0,1468.6047800548656,1468.6047800548656,476459,3104,2020-11-19 15:31:52,3099.1349999967492,66.0,18.36340206185567,0,4.0,2.5,0,180.0,0.0,0,12.0,-0.3076923076923077,0.46153846153846156,22,2,0,1,1,0,0,0.5,0.003333333333333334,1995,male,caucasian,college
16,473,1,1.0,184,3.0,5.0,0.0,180.0,1280.0,720.0,1280.0,720.0,1468.6047800548656,1468.6047800548656,482213,2659,2020-11-19 15:31:52,2655.5999999982305,66.0,13.16284317412561,0,5.0,3.0,0,180.0,0.0,0,13.0,-0.16666666666666666,0.0,7,3,0,0,1,1,0,0.6,0.0037037037037037043,1995,male,caucasian,college
16,473,1,1.0,187,1.0,5.0,0.0,180.0,1280.0,720.0,1280.0,720.0,1468.6047800548656,1468.6047800548656,487189,1931,2020-11-19 15:31:52,1927.160000006552,66.0,10.357327809425168,0,5.0,1.0,0,180.0,0.0,0,14.0,0.0,0.25,4,1,0,0,2,1,0,0.5,0.022222222222222223,1995,male,caucasian,college
16,473,1,1.0,190,4.0,5.0,0.0,365.0,1280.0,720.0,1280.0,720.0,1468.6047800548656,1468.6047800548656,495068,4794,2020-11-19 15:31:52,4789.839999997639,66.0,14.810179390905299,0,5.0,4.0,0,365.0,0.0,0,15.0,-0.4444444444444444,0.4444444444444444,26,2,1,3,1,3,0,-0.3333333333333333,0.0006849315068493151,1995,male,caucasian,college
16,473,1,1.0,193,4.0,5.0,0.0,90.0,1280.0,720.0,1280.0,720.0,1468.6047800548656,1468.6047800548656,500852,2739,2020-11-19 15:31:52,2735.995000010007,66.0,16.79445052939029,0,5.0,4.0,0,90.0,0.0,0,16.0,-0.35714285714285715,-0.42857142857142855,20,1,1,2,0,3,1,-0.6666666666666666,0.002777777777777778,1995,male,caucasian,college
16,473,1,1.0,196,2.5,4.5,0.0,365.0,1280.0,720.0,1280.0,720.0,1468.6047800548656,1468.6047800548656,508099,4128,2020-11-19 15:31:52,4123.009999995702,66.0,11.385658914728682,0,4.5,2.5,0,365.0,0.0,0,17.0,0.15789473684210525,0.2631578947368421,12,2,0,1,2,2,0,0.14285714285714285,0.0021917808219178085,1995,male,caucasian,college
16,473,1,1.0,199,2.5,5.0,0.0,180.0,1280.0,720.0,1280.0,720.0,1468.6047800548656,1468.6047800548656,514356,3123,2020-11-19 15:31:52,3117.1750000066827,66.0,11.527377521613833,0,5.0,2.5,0,180.0,0.0,0,18.0,0.0,-0.18181818181818182,17,1,0,1,2,1,0,0.2,0.005555555555555556,1995,male,caucasian,college
16,473,1,1.0,202,4.5,4.0,15.0,0.0,1280.0,720.0,1280.0,720.0,1468.6047800548656,1468.6047800548656,519584,2131,2020-11-19 15:31:52,2126.7899999947986,90.0,21.586109807602064,1,4.5,4.0,0,15.0,1.0,1,19.0,-0.14285714285714285,0.2,31,1,0,1,1,1,0,0.0,0.008333333333333333,1995,male,caucasian,college
16,473,1,1.0,205,4.0,2.5,30.0,0.0,1280.0,720.0,1280.0,720.0,1468.6047800548656,1468.6047800548656,525758,3026,2020-11-19 15:31:52,3020.365000003949,90.0,9.914077990746861,1,4.0,2.5,0,30.0,1.0,1,20.0,0.07692307692307693,0.23076923076923078,8,1,0,2,1,1,0,-0.2,0.020000000000000004,1995,male,caucasian,college
16,473,1,1.0,208,4.0,4.5,0.0,30.0,1280.0,720.0,1280.0,720.0,1468.6047800548656,1468.6047800548656,532652,3799,2020-11-19 15:31:52,3795.700000002398,66.0,18.425901553040273,0,4.5,4.0,0,30.0,0.0,0,21.0,0.1111111111111111,0.0,25,2,1,2,2,3,1,-0.1111111111111111,0.004166666666666667,1995,male,caucasian,college
16,473,1,1.0,211,5.0,2.0,365.0,0.0,1280.0,720.0,1280.0,720.0,1468.6047800548656,1468.6047800548656,538167,2455,2020-11-19 15:31:52,2452.384999996866,90.0,17.5152749490835,1,5.0,2.0,0,365.0,1.0,1,22.0,-0.2,0.3,13,1,0,4,1,1,0,-0.42857142857142855,0.00410958904109589,1995,male,caucasian,college
16,473,1,1.0,214,1.0,5.0,0.0,365.0,1280.0,720.0,1280.0,720.0,1468.6047800548656,1468.6047800548656,545956,4705,2020-11-19 15:31:52,4701.314999998431,66.0,15.090329436769395,0,5.0,1.0,0,365.0,0.0,0,23.0,-0.2972972972972973,0.1891891891891892,27,2,1,3,1,3,0,-0.3333333333333333,0.010958904109589041,1995,male,caucasian,college
16,473,1,1.0,217,4.0,2.0,180.0,0.0,1280.0,720.0,1280.0,720.0,1468.6047800548656,1468.6047800548656,553558,4490,2020-11-19 15:31:52,4483.950000008917,90.0,13.140311804008908,1,4.0,2.0,0,180.0,1.0,1,24.0,-0.45454545454545453,0.18181818181818182,16,2,1,3,0,0,0,-0.2,0.005555555555555556,1995,male,caucasian,college
16,473,1,1.0,220,5.0,3.5,365.0,0.0,1280.0,720.0,1280.0,720.0,1468.6047800548656,1468.6047800548656,559062,2429,2020-11-19 15:31:52,2425.279999995837,90.0,20.172910662824208,1,5.0,3.5,0,365.0,1.0,1,25.0,0.0,0.3,15,0,0,1,1,2,1,-0.5,0.0011741682974559689,1995,male,caucasian,college
16,473,1,1.0,223,5.0,4.5,15.0,0.0,1280.0,720.0,1280.0,720.0,1468.6047800548656,1468.6047800548656,567214,5020,2020-11-19 15:31:52,5013.200000001234,90.0,12.350597609561753,1,5.0,4.5,0,15.0,1.0,1,26.0,-0.07692307692307693,-0.07692307692307693,16,2,2,1,1,3,1,-0.14285714285714285,0.00740740740740741,1995,male,caucasian,college
16,473,1,1.0,226,4.5,3.5,15.0,0.0,1280.0,720.0,1280.0,720.0,1468.6047800548656,1468.6047800548656,573964,3675,2020-11-19 15:31:52,3670.314999995753,90.0,19.31972789115646,1,4.5,3.5,0,15.0,1.0,1,27.0,-0.2972972972972973,0.13513513513513514,29,3,0,1,1,3,0,0.0,0.019047619047619053,1995,male,caucasian,college
16,473,1,1.0,229,5.0,1.0,365.0,0.0,1280.0,720.0,1280.0,720.0,1468.6047800548656,1468.6047800548656,579524,2511,2020-11-19 15:31:52,2506.249999991269,90.0,18.319394663480686,1,5.0,1.0,0,365.0,1.0,1,28.0,-0.04,-0.28,18,2,0,3,1,1,0,-0.14285714285714285,0.010958904109589041,1995,male,caucasian,college
16,473,1,1.0,232,2.0,5.0,0.0,90.0,1280.0,720.0,1280.0,720.0,1468.6047800548656,1468.6047800548656,584629,1968,2020-11-19 15:31:52,1964.254999998957,66.0,11.178861788617887,0,5.0,2.0,0,90.0,0.0,0,29.0,-0.2,0.6,8,0,0,0,1,0,1,1.0,0.016666666666666666,1995,male,caucasian,college
16,473,1,1.0,235,2.5,4.5,0.0,180.0,1280.0,720.0,1280.0,720.0,1468.6047800548656,1468.6047800548656,589450,1703,2020-11-19 15:31:52,1700.1149999996414,66.0,17.028772753963594,0,4.5,2.5,0,180.0,0.0,0,30.0,-0.2,0.3,17,0,1,0,1,0,1,1.0,0.0044444444444444444,1995,male,caucasian,college
16,473,1,1.0,238,5.0,4.0,180.0,0.0,1280.0,720.0,1280.0,720.0,1468.6047800548656,1468.6047800548656,594192,1643,2020-11-19 15:31:52,1638.359999997192,90.0,13.99878271454656,1,5.0,4.0,0,180.0,1.0,1,31.0,-0.3333333333333333,0.1111111111111111,7,1,1,0,0,0,0,1.0,0.001388888888888889,1995,male,caucasian,college
16,473,1,1.0,241,4.5,2.5,365.0,0.0,1280.0,720.0,1280.0,720.0,1468.6047800548656,1468.6047800548656,601247,3951,2020-11-19 15:31:52,3942.725000000792,90.0,12.40192356365477,1,4.5,2.5,0,365.0,1.0,1,32.0,0.2,1.0,13,0,0,2,0,0,0,-1.0,0.0021917808219178085,1995,male,caucasian,college
16,473,1,1.0,244,4.0,1.0,365.0,0.0,1280.0,720.0,1280.0,720.0,1468.6047800548656,1468.6047800548656,606125,1795,2020-11-19 15:31:52,1789.919999995618,90.0,12.256267409470752,1,4.0,1.0,0,365.0,1.0,1,33.0,-0.4,0.4,7,1,1,1,0,0,0,0.0,0.00821917808219178,1995,male,caucasian,college
16,473,1,1.0,247,5.0,4.5,30.0,0.0,1280.0,720.0,1280.0,720.0,1468.6047800548656,1468.6047800548656,611283,2018,2020-11-19 15:31:52,1936.615000013262,90.0,13.37958374628345,1,5.0,4.5,0,30.0,1.0,1,34.0,-0.6,0.3,17,1,1,1,0,0,0,0.0,0.003703703703703705,1995,male,caucasian,college
16,473,1,1.0,250,4.5,2.0,180.0,0.0,1280.0,720.0,1280.0,720.0,1468.6047800548656,1468.6047800548656,616655,2180,2020-11-19 15:31:52,2174.935000002733,90.0,14.678899082568808,1,4.5,2.0,0,180.0,1.0,1,35.0,-0.8095238095238095,0.3333333333333333,17,2,0,2,0,0,0,0.0,0.006944444444444444,1995,male,caucasian,college
16,473,1,1.0,253,5.0,3.0,90.0,0.0,1280.0,720.0,1280.0,720.0,1468.6047800548656,1468.6047800548656,621615,1885,2020-11-19 15:31:52,1819.6749999915478,90.0,11.140583554376658,1,5.0,3.0,0,90.0,1.0,1,36.0,0.1111111111111111,0.3333333333333333,6,0,0,1,1,1,0,-0.3333333333333333,0.0074074074074074086,1995,male,caucasian,college
16,473,1,1.0,256,5.0,3.0,180.0,0.0,1280.0,720.0,1280.0,720.0,1468.6047800548656,1468.6047800548656,627897,3106,2020-11-19 15:31:52,3060.7499999896395,90.0,19.961365099806827,1,5.0,3.0,0,180.0,1.0,1,37.0,-0.42857142857142855,0.02857142857142857,29,2,2,2,0,0,0,0.0,0.0037037037037037043,1995,male,caucasian,college
16,473,1,1.0,259,4.5,3.0,180.0,0.0,1280.0,720.0,1280.0,720.0,1468.6047800548656,1468.6047800548656,633117,2138,2020-11-19 15:31:52,2077.8950000094487,90.0,17.305893358278766,1,4.5,3.0,0,180.0,1.0,1,38.0,-0.6470588235294118,-0.17647058823529413,14,1,1,1,0,0,0,0.0,0.002777777777777778,1995,male,caucasian,college
16,473,1,1.0,262,4.0,1.5,180.0,0.0,1280.0,720.0,1280.0,720.0,1468.6047800548656,1468.6047800548656,638268,2101,2020-11-19 15:31:52,2096.3099999935366,90.0,17.610661589719182,1,4.0,1.5,0,180.0,1.0,1,39.0,0.047619047619047616,0.6190476190476191,14,1,1,4,1,0,0,-0.3333333333333333,0.009259259259259259,1995,male,caucasian,college
16,473,1,1.0,265,1.5,4.5,0.0,365.0,1280.0,720.0,1280.0,720.0,1468.6047800548656,1468.6047800548656,644599,3259,2020-11-19 15:31:52,3256.265000003623,66.0,11.660018410555384,0,4.5,1.5,0,365.0,0.0,0,40.0,0.2631578947368421,-0.15789473684210525,16,0,0,1,0,0,2,-1.0,0.005479452054794521,1995,male,caucasian,college
16,473,1,1.0,268,5.0,4.0,365.0,0.0,1280.0,720.0,1280.0,720.0,1468.6047800548656,1468.6047800548656,649477,1797,2020-11-19 15:31:52,1793.0750000086844,90.0,11.129660545353367,1,5.0,4.0,0,365.0,1.0,1,41.0,0.0,0.3333333333333333,9,0,1,2,0,0,0,-1.0,0.0006849315068493151,1995,male,caucasian,college
16,473,1,1.0,271,4.0,5.0,0.0,15.0,1280.0,720.0,1280.0,720.0,1468.6047800548656,1468.6047800548656,655953,3280,2020-11-19 15:31:52,3274.9800000019604,66.0,11.585365853658537,0,5.0,4.0,0,15.0,0.0,0,42.0,0.6,-0.2,12,0,0,1,1,0,1,0.0,0.016666666666666666,1995,male,caucasian,college
16,473,1,1.0,274,4.5,3.0,365.0,0.0,1280.0,720.0,1280.0,720.0,1468.6047800548656,1468.6047800548656,661522,2390,2020-11-19 15:31:52,2387.284999989788,90.0,13.807531380753138,1,4.5,3.0,0,365.0,1.0,1,43.0,-0.29411764705882354,0.5294117647058824,14,1,1,1,0,0,0,0.0,0.0013698630136986301,1995,male,caucasian,college
16,473,1,1.0,277,1.5,4.5,0.0,90.0,1280.0,720.0,1280.0,720.0,1468.6047800548656,1468.6047800548656,666321,1760,2020-11-19 15:31:52,1686.7600000114182,66.0,11.931818181818182,0,4.5,1.5,0,90.0,0.0,0,44.0,1.0,-0.2,9,0,0,0,1,0,0,1.0,0.022222222222222223,1995,male,caucasian,college
16,473,1,1.0,280,3.0,4.5,0.0,365.0,1280.0,720.0,1280.0,720.0,1468.6047800548656,1468.6047800548656,671151,1742,2020-11-19 15:31:52,1737.8350000071805,66.0,13.20321469575201,0,4.5,3.0,0,365.0,0.0,0,45.0,0.7777777777777778,-0.3333333333333333,6,0,0,1,1,0,1,0.0,0.0013698630136986301,1995,male,caucasian,college
16,473,1,1.0,283,3.5,4.0,0.0,180.0,1280.0,720.0,1280.0,720.0,1468.6047800548656,1468.6047800548656,676469,2081,2020-11-19 15:31:52,2077.5100000028037,66.0,11.532916866890918,0,4.0,3.5,0,180.0,0.0,0,46.0,0.8571428571428571,0.14285714285714285,10,0,0,1,2,0,1,0.3333333333333333,0.0007936507936507933,1995,male,caucasian,college
16,473,1,1.0,286,4.5,5.0,0.0,90.0,1280.0,720.0,1280.0,720.0,1468.6047800548656,1468.6047800548656,682775,3264,2020-11-19 15:31:52,3209.5899999985704,66.0,17.46323529411765,0,5.0,4.5,0,90.0,0.0,0,47.0,0.8571428571428571,0.0,37,0,0,1,4,0,0,0.6,0.0012345679012345685,1995,male,caucasian,college
16,473,1,1.0,289,4.5,5.0,0.0,15.0,1280.0,720.0,1280.0,720.0,1468.6047800548656,1468.6047800548656,689011,3121,2020-11-19 15:31:52,3117.855000004056,66.0,16.661326497917333,0,5.0,4.5,0,15.0,0.0,0,48.0,0.3888888888888889,0.2222222222222222,31,0,0,1,2,0,2,0.3333333333333333,0.00740740740740741,1995,male,caucasian,college
16,473,1,1.0,292,3.5,4.5,0.0,180.0,1280.0,720.0,1280.0,720.0,1468.6047800548656,1468.6047800548656,694036,1905,2020-11-19 15:31:52,1900.0949999899606,66.0,11.023622047244094,0,4.5,3.5,0,180.0,0.0,0,49.0,0.6,1.0,14,0,0,1,0,0,0,-1.0,0.0015873015873015877,1995,male,caucasian,college
16,473,1,1.0,295,4.5,5.0,0.0,30.0,1280.0,720.0,1280.0,720.0,1468.6047800548656,1468.6047800548656,700830,3689,2020-11-19 15:31:52,3683.084999996936,66.0,11.92735158579561,0,5.0,4.5,0,30.0,0.0,0,50.0,0.2,0.4,23,0,0,2,2,2,1,-0.3333333333333333,0.003703703703703705,1995,male,caucasian,college
16,473,1,1.0,298,3.5,4.5,0.0,90.0,1280.0,720.0,1280.0,720.0,1468.6047800548656,1468.6047800548656,705695,1810,2020-11-19 15:31:52,1803.8649999944028,66.0,13.259668508287293,0,4.5,3.5,0,90.0,0.0,0,51.0,0.2857142857142857,1.0,13,0,0,1,0,0,0,-1.0,0.0031746031746031755,1995,male,caucasian,college
16,473,1,1.0,301,4.5,1.5,365.0,0.0,1280.0,720.0,1280.0,720.0,1468.6047800548656,1468.6047800548656,711403,2598,2020-11-19 15:31:52,2594.5949999877485,90.0,16.166281755196305,1,4.5,1.5,0,365.0,1.0,1,52.0,-0.8947368421052632,0.15789473684210525,14,3,0,2,0,0,0,0.2,0.005479452054794521,1995,male,caucasian,college
16,473,1,1.0,304,3.0,4.0,0.0,30.0,1280.0,720.0,1280.0,720.0,1468.6047800548656,1468.6047800548656,717118,2652,2020-11-19 15:31:52,2648.97499998915,90.0,14.328808446455506,0,4.0,3.0,0,30.0,1.0,0,53.0,0.14285714285714285,0.23809523809523808,15,0,0,2,0,2,2,-1.0,0.011111111111111108,1995,male,caucasian,college
16,473,1,1.0,307,4.0,4.5,0.0,7.0,1280.0,720.0,1280.0,720.0,1468.6047800548656,1468.6047800548656,726399,6177,2020-11-19 15:31:52,6173.045000003185,66.0,20.56014246397928,0,4.5,4.0,0,7.0,0.0,0,54.0,0.7560975609756098,-0.024390243902439025,68,0,1,6,6,1,0,-0.07692307692307693,0.017857142857142856,1995,male,caucasian,college
16,473,1,1.0,310,4.5,4.0,30.0,0.0,1280.0,720.0,1280.0,720.0,1468.6047800548656,1468.6047800548656,733042,3595,2020-11-19 15:31:52,3592.4750000122003,90.0,19.471488178025034,1,4.5,4.0,0,30.0,1.0,1,55.0,-0.9,-0.2,33,3,1,3,0,0,0,0.0,0.004166666666666667,1995,male,caucasian,college
16,473,1,1.0,313,5.0,2.0,180.0,0.0,1280.0,720.0,1280.0,720.0,1468.6047800548656,1468.6047800548656,738433,2346,2020-11-19 15:31:52,2341.929999995045,90.0,17.050298380221655,1,5.0,2.0,0,180.0,1.0,1,56.0,-0.5384615384615384,0.0,22,2,0,0,1,1,0,0.5,0.008333333333333333,1995,male,caucasian,college
16,473,1,1.0,316,3.0,5.0,0.0,90.0,1280.0,720.0,1280.0,720.0,1468.6047800548656,1468.6047800548656,744556,2976,2020-11-19 15:31:52,2972.0600000000563,66.0,17.809139784946236,0,5.0,3.0,0,90.0,0.0,0,57.0,0.2857142857142857,0.5,23,1,0,0,1,1,2,0.3333333333333333,0.0074074074074074086,1995,male,caucasian,college
16,473,1,1.0,319,3.5,4.5,0.0,30.0,1280.0,720.0,1280.0,720.0,1468.6047800548656,1468.6047800548656,750545,2880,2020-11-19 15:31:52,2872.280000010505,66.0,16.319444444444443,0,4.5,3.5,0,30.0,0.0,0,58.0,-0.3103448275862069,0.3793103448275862,22,3,0,1,1,1,1,0.3333333333333333,0.009523809523809526,1995,male,caucasian,college
16,473,1,1.0,322,3.5,4.0,0.0,15.0,1280.0,720.0,1280.0,720.0,1468.6047800548656,1468.6047800548656,758359,4728,2020-11-19 15:31:52,4725.31500000332,66.0,12.690355329949238,0,4.0,3.5,0,15.0,0.0,0,59.0,-0.68,0.28,19,3,1,0,1,0,1,1.0,0.00952380952380952,1995,male,caucasian,college
16,473,1,1.0,325,4.5,4.0,90.0,0.0,1280.0,720.0,1280.0,720.0,1468.6047800548656,1468.6047800548656,768467,7000,2020-11-19 15:31:52,6995.785000006435,90.0,14.714285714285714,1,4.5,4.0,0,90.0,1.0,1,60.0,-0.8305084745762712,0.2542372881355932,44,11,1,3,0,0,0,0.5714285714285714,0.001388888888888889,1995,male,caucasian,college
16,473,1,1.0,328,2.0,4.5,0.0,90.0,1280.0,720.0,1280.0,720.0,1468.6047800548656,1468.6047800548656,775102,3564,2020-11-19 15:31:52,3558.740000007674,66.0,15.712682379349046,0,4.5,2.0,0,90.0,0.0,0,61.0,0.6875,0.3125,27,0,0,2,2,0,1,0.0,0.013888888888888888,1995,male,caucasian,college
16,473,1,1.0,331,2.5,4.5,0.0,90.0,1280.0,720.0,1280.0,720.0,1468.6047800548656,1468.6047800548656,780584,2367,2020-11-19 15:31:52,2360.7650000049034,66.0,10.984368398817068,0,4.5,2.5,0,90.0,0.0,0,62.0,0.8666666666666667,-0.4666666666666667,13,0,0,0,1,0,1,1.0,0.008888888888888889,1995,male,caucasian,college
16,473,1,1.0,334,4.0,3.5,180.0,0.0,1280.0,720.0,1280.0,720.0,1468.6047800548656,1468.6047800548656,785893,2193,2020-11-19 15:31:52,2187.3599999962607,90.0,10.943912448700411,1,4.0,3.5,0,180.0,1.0,1,63.0,-0.45454545454545453,-0.2727272727272727,6,1,1,1,0,1,1,-0.3333333333333333,0.0007936507936507933,1995,male,caucasian,college
16,473,1,1.0,337,3.5,4.0,0.0,30.0,1280.0,720.0,1280.0,720.0,1468.6047800548656,1468.6047800548656,792251,3227,2020-11-19 15:31:52,3222.200000003795,66.0,16.114037806011776,0,4.0,3.5,0,30.0,0.0,0,64.0,0.7368421052631579,-0.42105263157894735,32,0,0,3,1,1,1,-0.6,0.00476190476190476,1995,male,caucasian,college
16,473,1,1.0,340,5.0,4.5,180.0,0.0,1280.0,720.0,1280.0,720.0,1468.6047800548656,1468.6047800548656,801698,6375,2020-11-19 15:31:52,6308.144999988144,66.0,13.803921568627452,1,5.0,4.5,0,180.0,0.0,0,65.0,-0.5217391304347826,0.4782608695652174,39,3,0,4,0,0,0,-0.14285714285714285,0.0006172839506172843,1995,male,caucasian,college
16,473,1,1.0,343,4.5,1.0,365.0,0.0,1280.0,720.0,1280.0,720.0,1468.6047800548656,1468.6047800548656,807693,2786,2020-11-19 15:31:52,2779.4449999928474,90.0,12.56281407035176,1,4.5,1.0,0,365.0,1.0,1,66.0,-0.8823529411764706,-0.4117647058823529,13,2,0,0,0,1,1,0.3333333333333333,0.009589041095890411,1995,male,caucasian,college
16,473,1,1.0,346,1.5,4.0,0.0,365.0,1280.0,720.0,1280.0,720.0,1468.6047800548656,1468.6047800548656,813466,2661,2020-11-19 15:31:52,2654.9549999908772,66.0,10.89815858699737,0,4.0,1.5,0,365.0,0.0,0,67.0,0.5555555555555556,0.4444444444444444,12,1,0,2,2,1,0,0.0,0.0045662100456621,1995,male,caucasian,college
16,473,1,1.0,349,5.0,2.5,90.0,0.0,1280.0,720.0,1280.0,720.0,1468.6047800548656,1468.6047800548656,818899,2298,2020-11-19 15:31:52,2293.47499999858,90.0,10.443864229765014,1,5.0,2.5,0,90.0,1.0,1,68.0,-0.6,0.2,11,2,1,1,0,0,0,0.3333333333333333,0.011111111111111112,1995,male,caucasian,college
16,473,1,1.0,352,3.5,4.5,0.0,365.0,1280.0,720.0,1280.0,720.0,1468.6047800548656,1468.6047800548656,826850,4762,2020-11-19 15:31:52,4754.950000002282,66.0,12.3897522049559,0,4.5,3.5,0,365.0,0.0,0,69.0,0.5172413793103449,-0.034482758620689655,23,0,0,1,2,2,1,-0.2,0.000782778864970646,1995,male,caucasian,college
16,473,1,1.0,355,5.0,3.0,365.0,0.0,1280.0,720.0,1280.0,720.0,1468.6047800548656,1468.6047800548656,832862,2887,2020-11-19 15:31:52,2880.7450000022072,90.0,11.776931070315205,1,5.0,3.0,0,365.0,1.0,1,70.0,-0.3333333333333333,0.0,9,1,1,1,0,0,0,0.0,0.0018264840182648403,1995,male,caucasian,college
16,473,1,1.0,358,4.0,3.0,90.0,0.0,1280.0,720.0,1280.0,720.0,1468.6047800548656,1468.6047800548656,838128,2155,2020-11-19 15:31:52,2150.1699999935227,90.0,12.529002320185615,1,4.0,3.0,0,90.0,1.0,1,71.0,-0.5555555555555556,0.1111111111111111,14,2,1,1,0,0,0,0.3333333333333333,0.003703703703703703,1995,male,caucasian,college
16,473,1,1.0,361,2.0,5.0,0.0,180.0,1280.0,720.0,1280.0,720.0,1468.6047800548656,1468.6047800548656,843416,2146,2020-11-19 15:31:52,2139.629999990575,66.0,9.785647716682199,0,5.0,2.0,0,180.0,0.0,0,72.0,0.4,-0.6,7,0,0,0,0,2,1,-1.0,0.008333333333333333,1995,male,caucasian,college
16,473,1,1.0,364,4.5,2.0,365.0,0.0,1280.0,720.0,1280.0,720.0,1468.6047800548656,1468.6047800548656,848458,1875,2020-11-19 15:31:52,1870.2900000062075,90.0,13.866666666666667,1,4.5,2.0,0,365.0,1.0,1,73.0,-0.7142857142857143,0.2857142857142857,11,1,1,1,0,0,0,0.0,0.003424657534246575,1995,male,caucasian,college
16,473,1,1.0,367,2.0,4.5,0.0,365.0,1280.0,720.0,1280.0,720.0,1468.6047800548656,1468.6047800548656,853593,1908,2020-11-19 15:31:52,1903.3000000054017,66.0,18.867924528301888,0,4.5,2.0,0,365.0,0.0,0,74.0,1.0,0.6923076923076923,10,0,0,0,3,0,0,1.0,0.003424657534246575,1995,male,caucasian,college
16,473,1,1.0,370,1.0,4.0,0.0,180.0,1280.0,720.0,1280.0,720.0,1468.6047800548656,1468.6047800548656,859149,2400,2020-11-19 15:31:52,2396.325000008801,66.0,11.25,0,4.0,1.0,0,180.0,0.0,0,75.0,-0.2857142857142857,1.0,13,0,0,1,0,0,0,-1.0,0.016666666666666666,1995,male,caucasian,college
17,75,1,1.0,148,1.5,4.0,0.0,180.0,1280.0,720.0,1280.0,720.0,1468.6047800548656,1468.6047800548656,445961,1887,2020-11-20 07:33:11,1882.3499999998605,66.0,23.84737678855326,0,4.0,1.5,0,180.0,0.0,0,1.0,0.4117647058823529,0.8823529411764706,13,0,0,2,1,0,1,-0.3333333333333333,0.009259259259259259,1995,diverse,hispanic,highSchool
17,75,1,1.0,151,4.0,4.5,0.0,90.0,1280.0,720.0,1280.0,720.0,1468.6047800548656,1468.6047800548656,452587,3601,2020-11-20 07:33:11,3598.595000017667,66.0,22.771452374340463,0,4.5,4.0,0,90.0,0.0,0,2.0,0.6,0.6,28,3,0,3,4,1,1,0.2727272727272727,0.001388888888888889,1995,diverse,hispanic,highSchool
17,75,1,1.0,154,4.0,2.5,90.0,0.0,1280.0,720.0,1280.0,720.0,1468.6047800548656,1468.6047800548656,457719,2081,2020-11-20 07:33:11,2078.9050000021234,90.0,23.546371936568956,1,4.0,2.5,0,90.0,1.0,1,3.0,-0.6190476190476191,1.0,19,0,0,2,0,0,0,-1.0,0.006666666666666668,1995,diverse,hispanic,highSchool
17,75,1,1.0,157,3.5,4.5,0.0,15.0,1280.0,720.0,1280.0,720.0,1468.6047800548656,1468.6047800548656,463923,3161,2020-11-20 07:33:11,3158.5299999860576,66.0,24.04302435937994,0,4.5,3.5,0,15.0,0.0,0,4.0,0.9487179487179487,1.0,37,0,0,2,0,0,0,-1.0,0.019047619047619053,1995,diverse,hispanic,highSchool
17,75,1,1.0,160,3.0,4.0,0.0,15.0,1280.0,720.0,1280.0,720.0,1468.6047800548656,1468.6047800548656,470576,3626,2020-11-20 07:33:11,3623.349999979837,66.0,23.44180915609487,0,4.0,3.0,0,15.0,0.0,0,5.0,0.4,0.45,33,2,0,1,2,2,0,0.14285714285714285,0.022222222222222216,1995,diverse,hispanic,highSchool
17,75,1,1.0,163,1.0,4.0,0.0,365.0,1280.0,720.0,1280.0,720.0,1468.6047800548656,1468.6047800548656,475802,2160,2020-11-20 07:33:11,2157.830000011017,66.0,24.074074074074073,0,4.0,1.0,0,365.0,0.0,0,6.0,0.5789473684210527,0.6842105263157895,15,0,1,1,1,1,0,-0.3333333333333333,0.00821917808219178,1995,diverse,hispanic,highSchool
17,75,1,1.0,166,4.0,2.5,180.0,0.0,1280.0,720.0,1280.0,720.0,1468.6047800548656,1468.6047800548656,482678,3823,2020-11-20 07:33:11,3821.1850000079717,90.0,23.803295840962594,1,4.0,2.5,0,180.0,1.0,1,7.0,-0.6065573770491803,0.7704918032786885,57,1,0,1,1,1,0,0.0,0.003333333333333334,1995,diverse,hispanic,highSchool
17,75,1,1.0,169,4.5,1.0,365.0,0.0,1280.0,720.0,1280.0,720.0,1468.6047800548656,1468.6047800548656,488356,2650,2020-11-20 07:33:11,2645.779999991646,90.0,23.39622641509434,1,4.5,1.0,0,365.0,1.0,1,8.0,-0.5294117647058824,0.7647058823529411,14,0,0,1,1,1,0,-0.3333333333333333,0.009589041095890411,1995,diverse,hispanic,highSchool
17,75,1,1.0,172,3.0,5.0,0.0,30.0,1280.0,720.0,1280.0,720.0,1468.6047800548656,1468.6047800548656,492509,1105,2020-11-20 07:33:11,1103.2049999921583,90.0,23.529411764705884,0,5.0,3.0,0,30.0,1.0,0,9.0,0.75,0.5,6,0,0,0,1,1,0,0.0,0.022222222222222223,1995,diverse,hispanic,highSchool
17,75,1,1.0,175,4.5,2.5,180.0,0.0,1280.0,720.0,1280.0,720.0,1468.6047800548656,1468.6047800548656,498318,2779,2020-11-20 07:33:11,2777.5200000032783,90.0,23.38970852824757,1,4.5,2.5,0,180.0,1.0,1,10.0,-1.0,0.8888888888888888,34,2,0,0,0,0,0,1.0,0.0044444444444444444,1995,diverse,hispanic,highSchool
17,75,1,1.0,178,5.0,4.0,15.0,0.0,1280.0,720.0,1280.0,720.0,1468.6047800548656,1468.6047800548656,504553,3192,2020-11-20 07:33:11,3189.1849999956316,90.0,23.182957393483708,1,5.0,4.0,0,15.0,1.0,1,11.0,-1.0,0.9487179487179487,37,2,0,0,0,0,0,1.0,0.016666666666666666,1995,diverse,hispanic,highSchool
17,75,1,1.0,181,3.5,4.5,0.0,30.0,1280.0,720.0,1280.0,720.0,1468.6047800548656,1468.6047800548656,511764,4155,2020-11-20 07:33:11,4151.814999990165,90.0,23.58604091456077,0,4.5,3.5,0,30.0,1.0,0,12.0,1.0,1.0,54,0,0,0,0,0,0,,0.009523809523809526,1995,diverse,hispanic,highSchool
17,75,1,1.0,184,5.0,1.0,180.0,0.0,1280.0,720.0,1280.0,720.0,1468.6047800548656,1468.6047800548656,517147,2316,2020-11-20 07:33:11,2312.685000011697,90.0,23.316062176165804,1,5.0,1.0,0,180.0,1.0,1,13.0,-0.9047619047619048,0.9047619047619048,19,0,0,0,0,0,2,,0.022222222222222223,1995,diverse,hispanic,highSchool
17,75,1,1.0,187,4.0,3.5,90.0,0.0,1280.0,720.0,1280.0,720.0,1468.6047800548656,1468.6047800548656,522536,2352,2020-11-20 07:33:11,2350.284999993164,90.0,23.3843537414966,1,4.0,3.5,0,90.0,1.0,1,14.0,-0.9047619047619048,1.0,19,0,0,2,0,0,0,-1.0,0.0015873015873015866,1995,diverse,hispanic,highSchool
17,75,1,1.0,190,1.5,4.5,0.0,365.0,1280.0,720.0,1280.0,720.0,1468.6047800548656,1468.6047800548656,527930,2324,2020-11-20 07:33:11,2321.4399999997117,66.0,24.096385542168676,0,4.5,1.5,0,365.0,0.0,0,15.0,1.0,0.9393939393939394,31,0,0,0,2,0,0,1.0,0.005479452054794521,1995,diverse,hispanic,highSchool
17,75,1,1.0,193,4.0,3.0,365.0,0.0,1280.0,720.0,1280.0,720.0,1468.6047800548656,1468.6047800548656,533866,2894,2020-11-20 07:33:11,2891.1099999968433,90.0,23.842432619212165,1,4.0,3.0,0,365.0,1.0,1,16.0,-0.7142857142857143,1.0,38,0,0,4,0,0,0,-1.0,0.0009132420091324198,1995,diverse,hispanic,highSchool
17,75,1,1.0,196,4.0,4.5,0.0,7.0,1280.0,720.0,1280.0,720.0,1468.6047800548656,1468.6047800548656,540409,3499,2020-11-20 07:33:11,3496.950000000652,66.0,24.006859102600743,0,4.5,4.0,0,7.0,0.0,0,17.0,0.625,1.0,29,0,0,3,0,0,0,-1.0,0.017857142857142856,1995,diverse,hispanic,highSchool
17,75,1,1.0,199,4.0,5.0,0.0,180.0,1280.0,720.0,1280.0,720.0,1468.6047800548656,1468.6047800548656,546227,2787,2020-11-20 07:33:11,2781.764999992447,66.0,23.681377825618945,0,5.0,4.0,0,180.0,0.0,0,18.0,0.8787878787878788,1.0,31,0,0,2,0,0,0,-1.0,0.001388888888888889,1995,diverse,hispanic,highSchool
17,75,1,1.0,202,2.5,4.0,0.0,180.0,1280.0,720.0,1280.0,720.0,1468.6047800548656,1468.6047800548656,552473,3188,2020-11-20 07:33:11,3185.245000000577,66.0,23.52572145545797,0,4.0,2.5,0,180.0,0.0,0,19.0,0.7575757575757576,1.0,31,0,0,2,0,0,0,-1.0,0.003333333333333334,1995,diverse,hispanic,highSchool
17,75,1,1.0,205,5.0,3.0,180.0,0.0,1280.0,720.0,1280.0,720.0,1468.6047800548656,1468.6047800548656,559473,3943,2020-11-20 07:33:11,3940.260000003036,90.0,23.839715952320567,1,5.0,3.0,0,180.0,1.0,1,20.0,-0.7254901960784313,0.9607843137254902,44,0,0,5,1,0,1,-0.6666666666666666,0.0037037037037037043,1995,diverse,hispanic,highSchool
17,75,1,1.0,208,5.0,3.0,365.0,0.0,1280.0,720.0,1280.0,720.0,1468.6047800548656,1468.6047800548656,565622,3101,2020-11-20 07:33:11,3096.9349999795672,90.0,23.540793292486295,1,5.0,3.0,0,365.0,1.0,1,21.0,-1.0,0.9574468085106383,45,2,0,0,0,0,0,1.0,0.0018264840182648403,1995,diverse,hispanic,highSchool
17,75,1,1.0,211,5.0,3.5,30.0,0.0,1280.0,720.0,1280.0,720.0,1468.6047800548656,1468.6047800548656,571801,3130,2020-11-20 07:33:11,3127.115000010235,90.0,23.322683706070286,1,5.0,3.5,0,30.0,1.0,1,22.0,-0.8709677419354839,1.0,27,0,0,4,0,0,0,-1.0,0.014285714285714287,1995,diverse,hispanic,highSchool
17,75,1,1.0,214,4.5,2.0,90.0,0.0,1280.0,720.0,1280.0,720.0,1468.6047800548656,1468.6047800548656,576907,2073,2020-11-20 07:33:11,2070.189999998547,90.0,23.637240713941146,1,4.5,2.0,0,90.0,1.0,1,23.0,-0.6666666666666666,0.7777777777777778,14,1,1,2,0,0,0,-0.3333333333333333,0.013888888888888888,1995,diverse,hispanic,highSchool
17,75,1,1.0,217,2.5,4.0,0.0,30.0,1280.0,720.0,1280.0,720.0,1468.6047800548656,1468.6047800548656,583563,3607,2020-11-20 07:33:11,3604.974999994738,66.0,23.84252841696701,0,4.0,2.5,0,30.0,0.0,0,24.0,0.37254901960784315,1.0,45,0,0,6,0,0,0,-1.0,0.020000000000000004,1995,diverse,hispanic,highSchool
17,75,1,1.0,220,4.5,1.5,90.0,0.0,1280.0,720.0,1280.0,720.0,1468.6047800548656,1468.6047800548656,590279,3665,2020-11-20 07:33:11,3660.6350000074603,90.0,23.192360163710777,1,4.5,1.5,0,90.0,1.0,1,25.0,-0.9411764705882353,0.9411764705882353,31,1,1,1,0,0,0,0.0,0.022222222222222223,1995,diverse,hispanic,highSchool
17,75,1,1.0,223,2.0,5.0,0.0,90.0,1280.0,720.0,1280.0,720.0,1468.6047800548656,1468.6047800548656,595104,1777,2020-11-20 07:33:11,1775.549999991199,66.0,21.947101857062464,0,5.0,2.0,0,90.0,0.0,0,26.0,0.6,1.0,18,0,0,2,0,0,0,-1.0,0.016666666666666666,1995,diverse,hispanic,highSchool
17,75,1,1.0,226,4.0,3.0,30.0,0.0,1280.0,720.0,1280.0,720.0,1468.6047800548656,1468.6047800548656,600126,1970,2020-11-20 07:33:11,1967.9900000046475,90.0,23.85786802030457,1,4.0,3.0,0,30.0,1.0,1,27.0,-1.0,1.0,23,0,0,0,0,0,0,,0.011111111111111108,1995,diverse,hispanic,highSchool
17,75,1,1.0,229,4.5,3.5,90.0,0.0,1280.0,720.0,1280.0,720.0,1468.6047800548656,1468.6047800548656,606918,3718,2020-11-20 07:33:11,3715.174999990268,90.0,23.130715438407748,1,4.5,3.5,0,90.0,1.0,1,28.0,-0.7857142857142857,1.0,24,0,0,4,0,0,0,-1.0,0.0031746031746031755,1995,diverse,hispanic,highSchool
17,75,1,1.0,232,5.0,2.0,90.0,0.0,1280.0,720.0,1280.0,720.0,1468.6047800548656,1468.6047800548656,612532,2582,2020-11-20 07:33:11,2579.710000019986,90.0,24.012393493415956,1,5.0,2.0,0,90.0,1.0,1,29.0,-0.7391304347826086,1.0,21,0,0,2,0,0,0,-1.0,0.016666666666666666,1995,diverse,hispanic,highSchool
17,75,1,1.0,235,4.5,2.5,365.0,0.0,1280.0,720.0,1280.0,720.0,1468.6047800548656,1468.6047800548656,618051,2474,2020-11-20 07:33:11,2470.7850000122558,90.0,23.848019401778497,1,4.5,2.5,0,365.0,1.0,1,30.0,-1.0,1.0,28,0,0,0,0,0,0,,0.0021917808219178085,1995,diverse,hispanic,highSchool
17,75,1,1.0,238,5.0,4.0,90.0,0.0,1280.0,720.0,1280.0,720.0,1468.6047800548656,1468.6047800548656,624764,3649,2020-11-20 07:33:11,3647.17500002007,90.0,23.56810084954782,1,5.0,4.0,0,90.0,1.0,1,31.0,-0.6756756756756757,1.0,33,0,0,4,0,0,0,-1.0,0.002777777777777778,1995,diverse,hispanic,highSchool
17,75,1,1.0,241,5.0,3.5,365.0,0.0,1280.0,720.0,1280.0,720.0,1468.6047800548656,1468.6047800548656,630053,2239,2020-11-20 07:33:11,2235.7750000082888,90.0,23.224653863331845,1,5.0,3.5,0,365.0,1.0,1,32.0,-0.5333333333333333,0.9333333333333333,24,2,0,4,0,0,0,-0.3333333333333333,0.0011741682974559689,1995,diverse,hispanic,highSchool
17,75,1,1.0,244,3.5,4.0,0.0,7.0,1280.0,720.0,1280.0,720.0,1468.6047800548656,1468.6047800548656,635751,2642,2020-11-20 07:33:11,2639.415000012377,66.0,24.224072672218018,0,4.0,3.5,0,7.0,0.0,0,33.0,0.5172413793103449,1.0,24,0,0,5,0,0,0,-1.0,0.020408163265306114,1995,diverse,hispanic,highSchool
17,75,1,1.0,247,2.5,4.5,0.0,90.0,1280.0,720.0,1280.0,720.0,1468.6047800548656,1468.6047800548656,641076,2288,2020-11-20 07:33:11,2285.219999990659,66.0,23.6013986013986,0,4.5,2.5,0,90.0,0.0,0,34.0,-0.2413793103448276,1.0,25,0,0,4,0,0,0,-1.0,0.008888888888888889,1995,diverse,hispanic,highSchool
17,75,1,1.0,250,4.5,3.5,30.0,0.0,1280.0,720.0,1280.0,720.0,1468.6047800548656,1468.6047800548656,646439,2306,2020-11-20 07:33:11,2303.140000003623,90.0,22.98352124891587,1,4.5,3.5,0,30.0,1.0,1,35.0,-0.030303030303030304,1.0,30,0,0,3,0,0,0,-1.0,0.009523809523809526,1995,diverse,hispanic,highSchool
17,75,1,1.0,253,4.0,5.0,0.0,15.0,1280.0,720.0,1280.0,720.0,1468.6047800548656,1468.6047800548656,652233,2745,2020-11-20 07:33:11,2742.505000001984,66.0,23.67941712204007,0,5.0,4.0,0,15.0,0.0,0,36.0,0.9259259259259259,1.0,25,0,0,2,0,0,0,-1.0,0.016666666666666666,1995,diverse,hispanic,highSchool
17,75,1,1.0,256,4.0,3.0,90.0,0.0,1280.0,720.0,1280.0,720.0,1468.6047800548656,1468.6047800548656,657055,1784,2020-11-20 07:33:11,1782.2950000117999,90.0,23.542600896860986,1,4.0,3.0,0,90.0,1.0,1,37.0,-0.8888888888888888,1.0,16,0,0,2,0,0,0,-1.0,0.003703703703703703,1995,diverse,hispanic,highSchool
17,75,1,1.0,259,1.5,4.5,0.0,90.0,1280.0,720.0,1280.0,720.0,1468.6047800548656,1468.6047800548656,662172,2083,2020-11-20 07:33:11,2080.9449999942444,66.0,23.523763802208354,0,4.5,1.5,0,90.0,0.0,0,38.0,0.29411764705882354,1.0,12,0,0,5,0,0,0,-1.0,0.022222222222222223,1995,diverse,hispanic,highSchool
17,75,1,1.0,262,3.0,4.5,0.0,365.0,1280.0,720.0,1280.0,720.0,1468.6047800548656,1468.6047800548656,666845,1601,2020-11-20 07:33:11,1597.490000014659,66.0,19.987507807620236,0,4.5,3.0,0,365.0,0.0,0,39.0,0.5,1.0,11,0,0,1,0,0,0,-1.0,0.0013698630136986301,1995,diverse,hispanic,highSchool
17,75,1,1.0,265,4.0,3.0,180.0,0.0,1280.0,720.0,1280.0,720.0,1468.6047800548656,1468.6047800548656,671402,1515,2020-11-20 07:33:11,1511.079999996582,90.0,19.801980198019802,1,4.0,3.0,0,180.0,1.0,1,40.0,-0.1111111111111111,1.0,15,0,0,3,0,0,0,-1.0,0.0018518518518518515,1995,diverse,hispanic,highSchool
17,75,1,1.0,268,4.0,1.0,365.0,0.0,1280.0,720.0,1280.0,720.0,1468.6047800548656,1468.6047800548656,676135,1658,2020-11-20 07:33:11,1655.5200000002515,90.0,22.919179734620023,1,4.0,1.0,0,365.0,1.0,1,41.0,-0.7142857142857143,0.8095238095238095,18,1,1,1,0,0,0,0.0,0.00821917808219178,1995,diverse,hispanic,highSchool
17,75,1,1.0,271,2.0,4.5,0.0,365.0,1280.0,720.0,1280.0,720.0,1468.6047800548656,1468.6047800548656,680501,1288,2020-11-20 07:33:11,1285.2249999996275,66.0,23.29192546583851,0,4.5,2.0,0,365.0,0.0,0,42.0,0.2727272727272727,1.0,9,0,0,2,0,0,0,-1.0,0.003424657534246575,1995,diverse,hispanic,highSchool
17,75,1,1.0,274,3.5,4.5,0.0,180.0,1280.0,720.0,1280.0,720.0,1468.6047800548656,1468.6047800548656,684548,974,2020-11-20 07:33:11,971.2499999732244,66.0,23.613963039014372,0,4.5,3.5,0,180.0,0.0,0,43.0,0.6470588235294118,1.0,15,0,0,2,0,0,0,-1.0,0.0015873015873015877,1995,diverse,hispanic,highSchool
17,75,1,1.0,277,4.5,3.0,365.0,0.0,1280.0,720.0,1280.0,720.0,1468.6047800548656,1468.6047800548656,689086,1451,2020-11-20 07:33:11,1447.855000005802,90.0,24.121295658166783,1,4.5,3.0,0,365.0,1.0,1,44.0,-1.0,1.0,8,0,0,0,0,0,0,,0.0013698630136986301,1995,diverse,hispanic,highSchool
17,75,1,1.0,280,4.0,2.5,365.0,0.0,1280.0,720.0,1280.0,720.0,1468.6047800548656,1468.6047800548656,693489,1291,2020-11-20 07:33:11,1287.784999993164,90.0,24.012393493415956,1,4.0,2.5,0,365.0,1.0,1,45.0,0.3333333333333333,1.0,10,0,0,2,0,0,0,-1.0,0.0016438356164383565,1995,diverse,hispanic,highSchool
17,75,1,1.0,283,4.5,5.0,0.0,30.0,1280.0,720.0,1280.0,720.0,1468.6047800548656,1468.6047800548656,702892,6337,2020-11-20 07:33:11,6332.4699999939185,66.0,23.51270317184788,0,5.0,4.5,0,30.0,0.0,0,46.0,0.7307692307692307,1.0,44,0,0,8,0,0,0,-1.0,0.003703703703703705,1995,diverse,hispanic,highSchool
17,75,1,1.0,286,2.5,5.0,0.0,365.0,1280.0,720.0,1280.0,720.0,1468.6047800548656,1468.6047800548656,707319,1366,2020-11-20 07:33:11,1363.275000010617,66.0,23.42606149341142,0,5.0,2.5,0,365.0,0.0,0,47.0,-0.6,0.8666666666666667,12,1,0,2,0,0,0,-0.3333333333333333,0.0027397260273972603,1995,diverse,hispanic,highSchool
17,75,1,1.0,289,5.0,4.5,7.0,0.0,1280.0,720.0,1280.0,720.0,1468.6047800548656,1468.6047800548656,712628,2271,2020-11-20 07:33:11,2268.4149999986403,90.0,23.337736679876706,1,5.0,4.5,0,7.0,1.0,1,48.0,-0.25,0.6875,27,1,0,2,1,1,0,-0.2,0.01587301587301588,1995,diverse,hispanic,highSchool
17,75,1,1.0,292,5.0,2.5,180.0,0.0,1280.0,720.0,1280.0,720.0,1468.6047800548656,1468.6047800548656,717500,1832,2020-11-20 07:33:11,1828.284999995958,90.0,22.925764192139738,1,5.0,2.5,0,180.0,1.0,1,49.0,-0.42857142857142855,1.0,17,0,0,4,0,0,0,-1.0,0.005555555555555556,1995,diverse,hispanic,highSchool
17,75,1,1.0,295,2.5,5.0,0.0,90.0,1280.0,720.0,1280.0,720.0,1468.6047800548656,1468.6047800548656,722329,1782,2020-11-20 07:33:11,1779.4299999950454,66.0,21.885521885521886,0,5.0,2.5,0,90.0,0.0,0,50.0,1.0,0.7647058823529411,15,0,0,0,2,0,0,1.0,0.011111111111111112,1995,diverse,hispanic,highSchool
17,75,1,1.0,298,1.0,4.5,0.0,365.0,1280.0,720.0,1280.0,720.0,1468.6047800548656,1468.6047800548656,728907,3508,2020-11-20 07:33:11,3504.569999990053,66.0,22.80501710376283,0,4.5,1.0,0,365.0,0.0,0,51.0,0.5652173913043478,0.8260869565217391,17,1,0,3,1,1,0,-0.3333333333333333,0.009589041095890411,1995,diverse,hispanic,highSchool
17,75,1,1.0,301,3.5,4.0,0.0,30.0,1280.0,720.0,1280.0,720.0,1468.6047800548656,1468.6047800548656,734359,2395,2020-11-20 07:33:11,2392.0149999903515,66.0,23.38204592901879,0,4.0,3.5,0,30.0,0.0,0,52.0,0.7391304347826086,0.9130434782608695,20,0,0,1,1,0,1,0.0,0.00476190476190476,1995,diverse,hispanic,highSchool
17,75,1,1.0,304,4.0,1.0,180.0,0.0,1280.0,720.0,1280.0,720.0,1468.6047800548656,1468.6047800548656,739301,1892,2020-11-20 07:33:11,1887.0300000126008,90.0,18.49894291754757,1,4.0,1.0,0,180.0,1.0,1,53.0,-0.7894736842105263,1.0,17,0,0,2,0,0,0,-1.0,0.016666666666666666,1995,diverse,hispanic,highSchool
17,75,1,1.0,307,4.5,4.0,7.0,0.0,1280.0,720.0,1280.0,720.0,1468.6047800548656,1468.6047800548656,744469,2118,2020-11-20 07:33:11,2113.7199999939185,90.0,21.246458923512748,1,4.5,4.0,0,7.0,1.0,1,54.0,-1.0,0.7931034482758621,27,2,0,0,0,0,0,1.0,0.017857142857142856,1995,diverse,hispanic,highSchool
17,75,1,1.0,310,4.0,5.0,0.0,365.0,1280.0,720.0,1280.0,720.0,1468.6047800548656,1468.6047800548656,750048,2541,2020-11-20 07:33:11,2538.3900000015274,66.0,17.70956316410862,0,5.0,4.0,0,365.0,0.0,0,55.0,1.0,0.7692307692307693,24,0,0,0,2,0,0,1.0,0.0006849315068493151,1995,diverse,hispanic,highSchool
17,75,1,1.0,313,3.0,4.0,0.0,180.0,1280.0,720.0,1280.0,720.0,1468.6047800548656,1468.6047800548656,755816,2692,2020-11-20 07:33:11,2688.829999999143,66.0,19.687964338781576,0,4.0,3.0,0,180.0,0.0,0,56.0,1.0,1.0,26,0,0,0,0,0,0,,0.0018518518518518515,1995,diverse,hispanic,highSchool
17,75,1,1.0,316,5.0,1.5,180.0,0.0,1280.0,720.0,1280.0,720.0,1468.6047800548656,1468.6047800548656,761330,2463,2020-11-20 07:33:11,2459.724999993341,90.0,20.300446609825418,1,5.0,1.5,0,180.0,1.0,1,57.0,-1.0,1.0,28,0,0,0,0,0,0,,0.012962962962962964,1995,diverse,hispanic,highSchool
17,75,1,1.0,319,4.5,1.0,180.0,0.0,1280.0,720.0,1280.0,720.0,1468.6047800548656,1468.6047800548656,766080,1711,2020-11-20 07:33:11,1707.9350000130944,90.0,22.793687901811808,1,4.5,1.0,0,180.0,1.0,1,58.0,-0.9,0.9,17,1,1,1,0,0,0,0.0,0.019444444444444445,1995,diverse,hispanic,highSchool
17,75,1,1.0,322,5.0,1.0,365.0,0.0,1280.0,720.0,1280.0,720.0,1468.6047800548656,1468.6047800548656,771520,2375,2020-11-20 07:33:11,2370.304999989457,90.0,23.57894736842105,1,5.0,1.0,0,365.0,1.0,1,59.0,-1.0,0.9444444444444444,34,2,0,0,0,0,0,1.0,0.010958904109589041,1995,diverse,hispanic,highSchool
17,75,1,1.0,325,3.0,5.0,0.0,180.0,1280.0,720.0,1280.0,720.0,1468.6047800548656,1468.6047800548656,776399,1809,2020-11-20 07:33:11,1805.5949999834409,66.0,23.217247097844112,0,5.0,3.0,0,180.0,0.0,0,60.0,1.0,0.9285714285714286,26,0,0,0,2,0,0,1.0,0.0037037037037037043,1995,diverse,hispanic,highSchool
17,75,1,1.0,328,5.0,4.5,30.0,0.0,1280.0,720.0,1280.0,720.0,1468.6047800548656,1468.6047800548656,783414,3977,2020-11-20 07:33:11,3974.25500000827,90.0,23.635906462157404,1,5.0,4.5,0,30.0,1.0,1,61.0,-0.574468085106383,1.0,45,0,0,2,0,0,0,-1.0,0.003703703703703705,1995,diverse,hispanic,highSchool
17,75,1,1.0,331,1.5,5.0,0.0,180.0,1280.0,720.0,1280.0,720.0,1468.6047800548656,1468.6047800548656,788761,2298,2020-11-20 07:33:11,2294.200000003912,66.0,23.49869451697128,0,5.0,1.5,0,180.0,0.0,0,62.0,1.0,1.0,32,0,0,0,0,0,0,,0.012962962962962964,1995,diverse,hispanic,highSchool
17,75,1,1.0,334,5.0,3.0,90.0,0.0,1280.0,720.0,1280.0,720.0,1468.6047800548656,1468.6047800548656,793869,2073,2020-11-20 07:33:11,2069.4749999966007,90.0,23.154848046309695,1,5.0,3.0,0,90.0,1.0,1,63.0,-1.0,1.0,25,0,0,0,0,0,0,,0.0074074074074074086,1995,diverse,hispanic,highSchool
17,75,1,1.0,337,4.5,4.0,30.0,0.0,1280.0,720.0,1280.0,720.0,1468.6047800548656,1468.6047800548656,798803,1893,2020-11-20 07:33:11,1890.274999983376,90.0,23.243528790279978,1,4.5,4.0,0,30.0,1.0,1,64.0,-1.0,1.0,30,0,0,0,0,0,0,,0.004166666666666667,1995,diverse,hispanic,highSchool
17,75,1,1.0,340,2.0,4.5,0.0,90.0,1280.0,720.0,1280.0,720.0,1468.6047800548656,1468.6047800548656,803631,1750,2020-11-20 07:33:11,1747.2000000125265,66.0,22.857142857142858,0,4.5,2.0,0,90.0,0.0,0,65.0,1.0,1.0,30,0,0,0,0,0,0,,0.013888888888888888,1995,diverse,hispanic,highSchool
17,75,1,1.0,343,5.0,4.0,180.0,0.0,1280.0,720.0,1280.0,720.0,1468.6047800548656,1468.6047800548656,808433,1727,2020-11-20 07:33:11,1722.604999988107,66.0,23.161551823972207,1,5.0,4.0,0,180.0,0.0,0,66.0,-1.0,1.0,25,0,0,0,0,0,0,,0.001388888888888889,1995,diverse,hispanic,highSchool
17,75,1,1.0,346,1.0,4.0,0.0,180.0,1280.0,720.0,1280.0,720.0,1468.6047800548656,1468.6047800548656,813386,1891,2020-11-20 07:33:11,1887.8850000037344,66.0,21.68164992067689,0,4.0,1.0,0,180.0,0.0,0,67.0,1.0,1.0,27,0,0,0,0,0,0,,0.016666666666666666,1995,diverse,hispanic,highSchool
17,75,1,1.0,349,4.0,5.0,0.0,30.0,1280.0,720.0,1280.0,720.0,1468.6047800548656,1468.6047800548656,820307,3833,2020-11-20 07:33:11,3829.319999989821,66.0,21.914949126010956,0,5.0,4.0,0,30.0,0.0,0,68.0,1.0,1.0,59,0,0,0,0,0,0,,0.008333333333333333,1995,diverse,hispanic,highSchool
17,75,1,1.0,352,4.5,1.5,180.0,0.0,1280.0,720.0,1280.0,720.0,1468.6047800548656,1468.6047800548656,826620,3230,2020-11-20 07:33:11,3226.6200000012764,90.0,23.529411764705884,1,4.5,1.5,0,180.0,1.0,1,69.0,-0.7818181818181819,0.8909090909090909,51,2,0,2,0,0,0,0.0,0.011111111111111112,1995,diverse,hispanic,highSchool
17,75,1,1.0,355,4.5,3.5,15.0,0.0,1280.0,720.0,1280.0,720.0,1468.6047800548656,1468.6047800548656,833479,3790,2020-11-20 07:33:11,3786.795000021812,90.0,23.482849604221634,1,4.5,3.5,0,15.0,1.0,1,70.0,-0.7543859649122807,1.0,51,0,0,6,0,0,0,-1.0,0.019047619047619053,1995,diverse,hispanic,highSchool
17,75,1,1.0,358,2.5,4.0,0.0,365.0,1280.0,720.0,1280.0,720.0,1468.6047800548656,1468.6047800548656,838872,2333,2020-11-20 07:33:11,2329.5999999972987,66.0,23.574796399485642,0,4.0,2.5,0,365.0,0.0,0,71.0,1.0,0.8378378378378378,35,0,0,0,2,0,0,1.0,0.0016438356164383565,1995,diverse,hispanic,highSchool
17,75,1,1.0,361,4.5,2.5,90.0,0.0,1280.0,720.0,1280.0,720.0,1468.6047800548656,1468.6047800548656,846758,4802,2020-11-20 07:33:11,4797.609999979613,90.0,23.531861724281548,1,4.5,2.5,0,90.0,1.0,1,72.0,-0.8526315789473684,0.9157894736842105,89,2,0,4,0,0,0,-0.3333333333333333,0.008888888888888889,1995,diverse,hispanic,highSchool
17,75,1,1.0,364,4.5,2.0,180.0,0.0,1280.0,720.0,1280.0,720.0,1468.6047800548656,1468.6047800548656,851975,2137,2020-11-20 07:33:11,2133.509999985108,90.0,23.39728591483388,1,4.5,2.0,0,180.0,1.0,1,73.0,-1.0,0.9230769230769231,24,2,0,0,0,0,0,1.0,0.006944444444444444,1995,diverse,hispanic,highSchool
17,75,1,1.0,367,2.5,4.5,0.0,365.0,1280.0,720.0,1280.0,720.0,1468.6047800548656,1468.6047800548656,859395,4375,2020-11-20 07:33:11,4371.745000011288,66.0,23.542857142857144,0,4.5,2.5,0,365.0,0.0,0,74.0,0.6785714285714286,0.7857142857142857,47,2,0,1,4,0,2,0.7142857142857143,0.0021917808219178085,1995,diverse,hispanic,highSchool
17,75,1,1.0,370,4.0,1.5,180.0,0.0,1280.0,720.0,1280.0,720.0,1468.6047800548656,1468.6047800548656,865039,2561,2020-11-20 07:33:11,2558.170000003884,90.0,23.42834830144475,1,4.0,1.5,0,180.0,1.0,1,75.0,-1.0,0.7837837837837838,35,2,0,0,0,0,0,1.0,0.009259259259259259,1995,diverse,hispanic,highSchool
18,606,0,1.0,273,5.0,4.5,30.0,0.0,1280.0,720.0,1280.0,720.0,1468.6047800548656,1468.6047800548656,727018,5144,2020-11-20 08:48:06,5136.994999978924,66.0,23.716951788491446,1,5.0,4.5,0,30.0,0.0,0,1.0,0.5,0.4,24,0,0,8,7,1,0,-0.125,0.003703703703703705,1995,male,caucasian,grad
18,606,0,1.0,276,2.5,4.5,0.0,180.0,1280.0,720.0,1280.0,720.0,1468.6047800548656,1468.6047800548656,731779,1714,2020-11-20 08:48:06,1711.2299999862446,66.0,23.337222870478413,0,4.5,2.5,0,180.0,0.0,0,2.0,-0.3,0.0,13,3,1,3,0,0,0,0.0,0.0044444444444444444,1995,male,caucasian,grad
18,606,0,1.0,279,4.5,3.0,90.0,0.0,1280.0,720.0,1280.0,720.0,1468.6047800548656,1468.6047800548656,736295,1473,2020-11-20 08:48:06,1471.2199999776205,90.0,23.08214528173795,1,4.5,3.0,0,90.0,1.0,1,3.0,-0.5294117647058824,-0.17647058823529413,13,1,0,1,1,1,0,0.0,0.005555555555555556,1995,male,caucasian,grad
18,606,0,1.0,282,3.0,4.5,0.0,365.0,1280.0,720.0,1280.0,720.0,1468.6047800548656,1468.6047800548656,740069,725,2020-11-20 08:48:06,721.270000009099,66.0,22.06896551724138,0,4.5,3.0,0,365.0,0.0,0,4.0,-1.0,1.0,16,0,0,0,0,0,0,,0.0013698630136986301,1995,male,caucasian,grad
18,606,0,1.0,285,5.0,1.5,180.0,0.0,1280.0,720.0,1280.0,720.0,1468.6047800548656,1468.6047800548656,744469,1294,2020-11-20 08:48:06,1290.8199999947099,90.0,23.183925811437405,1,5.0,1.5,0,180.0,1.0,1,5.0,0.5384615384615384,0.8461538461538461,10,0,0,2,1,0,0,-0.3333333333333333,0.012962962962962964,1995,male,caucasian,grad
18,606,0,1.0,288,4.0,5.0,0.0,30.0,1280.0,720.0,1280.0,720.0,1468.6047800548656,1468.6047800548656,750165,2597,2020-11-20 08:48:06,2593.349999981001,66.0,23.488640739314594,0,5.0,4.0,0,30.0,0.0,0,6.0,-0.4117647058823529,0.29411764705882354,10,1,2,4,0,0,0,-0.6,0.008333333333333333,1995,male,caucasian,grad
18,606,0,1.0,291,4.5,3.5,180.0,0.0,1280.0,720.0,1280.0,720.0,1468.6047800548656,1468.6047800548656,755227,1992,2020-11-20 08:48:06,1989.6750000189056,90.0,22.59036144578313,1,4.5,3.5,0,180.0,1.0,1,7.0,0.4,0.5,14,0,1,3,1,1,0,-0.6,0.0015873015873015877,1995,male,caucasian,grad
18,606,0,1.0,294,2.0,4.0,0.0,180.0,1280.0,720.0,1280.0,720.0,1468.6047800548656,1468.6047800548656,760264,1956,2020-11-20 08:48:06,1954.1749999916647,66.0,24.028629856850717,0,4.0,2.0,0,180.0,0.0,0,8.0,-0.1111111111111111,-0.1111111111111111,6,0,3,0,0,0,0,,0.005555555555555556,1995,male,caucasian,grad
18,606,0,1.0,297,4.0,1.5,90.0,0.0,1280.0,720.0,1280.0,720.0,1468.6047800548656,1468.6047800548656,765333,2006,2020-11-20 08:48:06,2002.5650000025053,90.0,23.429710867397805,1,4.0,1.5,0,90.0,1.0,1,9.0,0.23809523809523808,0.42857142857142855,16,1,0,1,1,1,1,0.0,0.018518518518518517,1995,male,caucasian,grad
18,606,0,1.0,300,1.5,4.0,0.0,90.0,1280.0,720.0,1280.0,720.0,1468.6047800548656,1468.6047800548656,769435,1045,2020-11-20 08:48:06,1041.609999985667,66.0,22.966507177033492,0,4.0,1.5,0,90.0,0.0,0,10.0,0.42857142857142855,0.42857142857142855,6,0,1,0,0,0,0,,0.018518518518518517,1995,male,caucasian,grad
18,606,0,1.0,303,5.0,1.5,365.0,0.0,1280.0,720.0,1280.0,720.0,1468.6047800548656,1468.6047800548656,774078,1594,2020-11-20 08:48:06,1590.729999996256,90.0,23.212045169385195,1,5.0,1.5,0,365.0,1.0,1,11.0,0.2,-0.06666666666666667,9,1,1,2,1,0,1,0.0,0.006392694063926941,1995,male,caucasian,grad
18,606,0,1.0,306,1.0,4.0,0.0,180.0,1280.0,720.0,1280.0,720.0,1468.6047800548656,1468.6047800548656,779056,1934,2020-11-20 08:48:06,1930.8449999953154,66.0,22.750775594622542,0,4.0,1.0,0,180.0,0.0,0,12.0,0.3333333333333333,0.0,10,0,1,0,0,1,0,-1.0,0.016666666666666666,1995,male,caucasian,grad
18,606,0,1.0,309,4.0,3.5,180.0,0.0,1280.0,720.0,1280.0,720.0,1468.6047800548656,1468.6047800548656,791078,8942,2020-11-20 08:48:06,8938.490000000456,90.0,23.59651084768508,1,4.0,3.5,0,180.0,1.0,1,13.0,-0.20388349514563106,-0.1262135922330097,82,9,2,2,2,3,3,0.375,0.0007936507936507933,1995,male,caucasian,grad
18,606,0,1.0,312,5.0,3.5,90.0,0.0,1280.0,720.0,1280.0,720.0,1468.6047800548656,1468.6047800548656,796887,2756,2020-11-20 08:48:06,2752.81500001438,90.0,23.222060957910013,1,5.0,3.5,0,90.0,1.0,1,14.0,0.1724137931034483,-0.10344827586206896,20,2,0,1,3,1,2,0.42857142857142855,0.004761904761904762,1995,male,caucasian,grad
18,606,0,1.0,315,3.5,5.0,0.0,365.0,1280.0,720.0,1280.0,720.0,1468.6047800548656,1468.6047800548656,803816,3861,2020-11-20 08:48:06,3857.730000017909,66.0,23.569023569023567,0,5.0,3.5,0,365.0,0.0,0,15.0,0.2972972972972973,-0.13513513513513514,29,1,1,2,1,2,1,-0.3333333333333333,0.0011741682974559689,1995,male,caucasian,grad
18,606,0,1.0,318,3.0,4.0,0.0,15.0,1280.0,720.0,1280.0,720.0,1468.6047800548656,1468.6047800548656,809992,3097,2020-11-20 08:48:06,3093.8249999890104,66.0,23.248304811107523,0,4.0,3.0,0,15.0,0.0,0,16.0,0.7241379310344828,0.1724137931034483,22,1,0,3,1,2,0,-0.42857142857142855,0.022222222222222216,1995,male,caucasian,grad
18,606,0,1.0,321,4.5,3.5,15.0,0.0,1280.0,720.0,1280.0,720.0,1468.6047800548656,1468.6047800548656,818830,5790,2020-11-20 08:48:06,5787.704999995186,90.0,23.66148531951641,1,4.5,3.5,0,15.0,1.0,1,17.0,-0.8529411764705882,-0.23529411764705882,58,9,0,1,0,0,0,0.8,0.019047619047619053,1995,male,caucasian,grad
18,606,0,1.0,324,5.0,3.5,365.0,0.0,1280.0,720.0,1280.0,720.0,1468.6047800548656,1468.6047800548656,825947,4030,2020-11-20 08:48:06,4027.170000015758,90.0,23.82133995037221,1,5.0,3.5,0,365.0,1.0,1,18.0,-0.5897435897435898,0.6923076923076923,31,2,0,4,0,2,0,-0.5,0.0011741682974559689,1995,male,caucasian,grad
18,606,0,1.0,327,4.5,1.5,180.0,0.0,1280.0,720.0,1280.0,720.0,1468.6047800548656,1468.6047800548656,830972,1977,2020-11-20 08:48:06,1973.9299999782816,90.0,22.76176024279211,1,4.5,1.5,0,180.0,1.0,1,19.0,-0.8571428571428571,-0.14285714285714285,11,2,0,0,0,1,0,0.3333333333333333,0.011111111111111112,1995,male,caucasian,grad
18,606,0,1.0,330,2.5,4.0,0.0,30.0,1280.0,720.0,1280.0,720.0,1468.6047800548656,1468.6047800548656,835721,1676,2020-11-20 08:48:06,1672.6950000156646,66.0,23.269689737470166,0,4.0,2.5,0,30.0,0.0,0,20.0,-0.6,-0.6,4,0,1,0,0,0,0,,0.020000000000000004,1995,male,caucasian,grad
18,606,0,1.0,333,1.5,4.5,0.0,90.0,1280.0,720.0,1280.0,720.0,1468.6047800548656,1468.6047800548656,840383,1622,2020-11-20 08:48:06,1618.4050000156274,66.0,22.19482120838471,0,4.5,1.5,0,90.0,0.0,0,21.0,0.07692307692307693,-0.23076923076923078,9,1,0,1,1,1,0,0.0,0.022222222222222223,1995,male,caucasian,grad
18,606,0,1.0,336,4.5,1.0,180.0,0.0,1280.0,720.0,1280.0,720.0,1468.6047800548656,1468.6047800548656,845691,2244,2020-11-20 08:48:06,2241.1949999805074,90.0,23.1729055258467,1,4.5,1.0,0,180.0,1.0,1,22.0,0.3684210526315789,-0.05263157894736842,13,0,1,2,0,1,2,-1.0,0.019444444444444445,1995,male,caucasian,grad
18,606,0,1.0,339,1.0,4.0,0.0,365.0,1280.0,720.0,1280.0,720.0,1468.6047800548656,1468.6047800548656,850723,1966,2020-11-20 08:48:06,1963.929999998072,66.0,23.397761953204476,0,4.0,1.0,0,365.0,0.0,0,23.0,-0.47368421052631576,-0.05263157894736842,14,3,1,1,0,0,0,0.5,0.00821917808219178,1995,male,caucasian,grad
18,606,0,1.0,342,4.0,2.5,30.0,0.0,1280.0,720.0,1280.0,720.0,1468.6047800548656,1468.6047800548656,857030,3228,2020-11-20 08:48:06,3225.485000002664,90.0,23.234200743494423,1,4.0,2.5,0,30.0,1.0,1,24.0,-0.2631578947368421,0.21052631578947367,31,3,0,2,1,1,0,0.14285714285714285,0.020000000000000004,1995,male,caucasian,grad
18,606,0,1.0,345,4.0,5.0,0.0,365.0,1280.0,720.0,1280.0,720.0,1468.6047800548656,1468.6047800548656,864193,4095,2020-11-20 08:48:06,4091.175000008661,66.0,23.1990231990232,0,5.0,4.0,0,365.0,0.0,0,25.0,0.14285714285714285,0.5428571428571428,29,1,0,2,2,1,0,0.0,0.0006849315068493151,1995,male,caucasian,grad
18,606,0,1.0,348,4.0,1.5,365.0,0.0,1280.0,720.0,1280.0,720.0,1468.6047800548656,1468.6047800548656,869205,1946,2020-11-20 08:48:06,1943.7749999924563,90.0,23.638232271325798,1,4.0,1.5,0,365.0,1.0,1,26.0,0.3,0.7,15,0,1,2,0,1,1,-1.0,0.0045662100456621,1995,male,caucasian,grad
18,606,0,1.0,351,5.0,2.0,180.0,0.0,1280.0,720.0,1280.0,720.0,1468.6047800548656,1468.6047800548656,874817,2551,2020-11-20 08:48:06,2548.1950000103093,90.0,23.128185025480203,1,5.0,2.0,0,180.0,1.0,1,27.0,0.18518518518518517,0.48148148148148145,19,1,0,5,1,1,0,-0.5,0.008333333333333333,1995,male,caucasian,grad
18,606,0,1.0,354,1.0,5.0,0.0,365.0,1280.0,720.0,1280.0,720.0,1468.6047800548656,1468.6047800548656,880165,2283,2020-11-20 08:48:06,2280.510000011418,66.0,23.653088042049934,0,5.0,1.0,0,365.0,0.0,0,28.0,-0.6521739130434783,0.6521739130434783,16,2,0,2,0,2,1,-0.3333333333333333,0.010958904109589041,1995,male,caucasian,grad
18,606,0,1.0,357,5.0,2.0,365.0,0.0,1280.0,720.0,1280.0,720.0,1468.6047800548656,1468.6047800548656,885120,1875,2020-11-20 08:48:06,1872.9249999742026,90.0,23.466666666666665,1,5.0,2.0,0,365.0,1.0,1,29.0,-0.04,-0.36,18,2,0,1,2,2,0,0.14285714285714285,0.00410958904109589,1995,male,caucasian,grad
18,606,0,1.0,360,4.5,2.5,365.0,0.0,1280.0,720.0,1280.0,720.0,1468.6047800548656,1468.6047800548656,889687,1516,2020-11-20 08:48:06,1512.6100000052247,90.0,23.08707124010554,1,4.5,2.5,0,365.0,1.0,1,30.0,0.07692307692307693,0.23076923076923078,8,1,0,2,1,1,0,-0.2,0.0021917808219178085,1995,male,caucasian,grad
18,606,0,1.0,363,4.5,3.5,30.0,0.0,1280.0,720.0,1280.0,720.0,1468.6047800548656,1468.6047800548656,894940,2171,2020-11-20 08:48:06,2167.7900000067893,90.0,23.491478581298942,1,4.5,3.5,0,30.0,1.0,1,31.0,-1.0,-0.06666666666666667,28,2,0,0,0,0,0,1.0,0.009523809523809526,1995,male,caucasian,grad
18,606,0,1.0,366,4.5,3.0,365.0,0.0,1280.0,720.0,1280.0,720.0,1468.6047800548656,1468.6047800548656,900773,2770,2020-11-20 08:48:06,2767.8799999994226,90.0,23.465703971119133,1,4.5,3.0,0,365.0,1.0,1,32.0,-1.0,-0.5555555555555556,31,5,0,0,0,0,0,1.0,0.0013698630136986301,1995,male,caucasian,grad
18,606,0,1.0,369,4.5,4.0,7.0,0.0,1280.0,720.0,1280.0,720.0,1468.6047800548656,1468.6047800548656,908080,4252,2020-11-20 08:48:06,4247.929999983171,90.0,23.28316086547507,1,4.5,4.0,0,7.0,1.0,1,33.0,-0.9215686274509803,-0.2549019607843137,40,8,0,1,0,1,1,0.6,0.017857142857142856,1995,male,caucasian,grad
18,606,0,1.0,372,3.0,4.0,0.0,180.0,1280.0,720.0,1280.0,720.0,1468.6047800548656,1468.6047800548656,914029,2894,2020-11-20 08:48:06,2889.950000011595,66.0,23.49689011748445,0,4.0,3.0,0,180.0,0.0,0,34.0,0.92,-0.04,20,0,0,2,3,0,0,0.2,0.0018518518518518515,1995,male,caucasian,grad
18,606,0,1.0,375,5.0,4.5,15.0,0.0,1280.0,720.0,1280.0,720.0,1468.6047800548656,1468.6047800548656,920636,3556,2020-11-20 08:48:06,3553.385000006529,90.0,22.778402699662543,1,5.0,4.5,0,15.0,1.0,1,35.0,-1.0,0.0,39,5,0,0,0,0,0,1.0,0.00740740740740741,1995,male,caucasian,grad
18,606,0,1.0,378,3.0,4.0,0.0,365.0,1280.0,720.0,1280.0,720.0,1468.6047800548656,1468.6047800548656,926837,3119,2020-11-20 08:48:06,3115.894999995362,66.0,23.404937479961525,0,4.0,3.0,0,365.0,0.0,0,36.0,1.0,-0.5757575757575758,31,0,0,0,2,0,0,1.0,0.0009132420091324198,1995,male,caucasian,grad
18,606,0,1.0,381,3.5,4.0,0.0,30.0,1280.0,720.0,1280.0,720.0,1468.6047800548656,1468.6047800548656,933360,3456,2020-11-20 08:48:06,3453.719999990426,66.0,22.569444444444443,0,4.0,3.5,0,30.0,0.0,0,37.0,1.0,-0.7307692307692307,48,0,0,0,4,0,0,1.0,0.00476190476190476,1995,male,caucasian,grad
18,606,0,1.0,384,4.0,1.5,180.0,0.0,1280.0,720.0,1280.0,720.0,1468.6047800548656,1468.6047800548656,938189,1776,2020-11-20 08:48:06,1773.5150000080466,90.0,23.085585585585587,1,4.0,1.5,0,180.0,1.0,1,38.0,0.2727272727272727,-0.2727272727272727,18,1,0,0,1,1,1,0.3333333333333333,0.009259259259259259,1995,male,caucasian,grad
18,606,0,1.0,387,3.0,4.5,0.0,90.0,1280.0,720.0,1280.0,720.0,1468.6047800548656,1468.6047800548656,942201,963,2020-11-20 08:48:06,960.5549999978392,66.0,23.883696780893043,0,4.5,3.0,0,90.0,0.0,0,39.0,-0.3333333333333333,1.0,11,0,0,1,0,0,0,-1.0,0.005555555555555556,1995,male,caucasian,grad
18,606,0,1.0,390,2.0,4.5,0.0,90.0,1280.0,720.0,1280.0,720.0,1468.6047800548656,1468.6047800548656,947328,2022,2020-11-20 08:48:06,2019.2649999808054,66.0,23.73887240356083,0,4.5,2.0,0,90.0,0.0,0,40.0,0.08571428571428572,-0.02857142857142857,31,1,0,1,1,1,0,0.0,0.013888888888888888,1995,male,caucasian,grad
18,606,0,1.0,393,4.5,3.0,180.0,0.0,1280.0,720.0,1280.0,720.0,1468.6047800548656,1468.6047800548656,951991,1545,2020-11-20 08:48:06,1541.6400000103752,90.0,22.653721682847895,1,4.5,3.0,0,180.0,1.0,1,41.0,0.375,0.75,10,0,0,5,1,0,0,-0.6666666666666666,0.002777777777777778,1995,male,caucasian,grad
18,606,0,1.0,396,4.0,2.5,365.0,0.0,1280.0,720.0,1280.0,720.0,1468.6047800548656,1468.6047800548656,957555,2459,2020-11-20 08:48:06,2456.8750000034925,90.0,23.180154534363563,1,4.0,2.5,0,365.0,1.0,1,42.0,-0.68,0.28,21,1,0,3,0,0,0,-0.5,0.0016438356164383565,1995,male,caucasian,grad
18,606,0,1.0,399,5.0,3.5,30.0,0.0,1280.0,720.0,1280.0,720.0,1468.6047800548656,1468.6047800548656,961833,1174,2020-11-20 08:48:06,1171.345000009751,90.0,22.998296422487222,1,5.0,3.5,0,30.0,1.0,1,43.0,-1.0,0.0,7,1,0,0,0,0,0,1.0,0.014285714285714287,1995,male,caucasian,grad
18,606,0,1.0,402,5.0,3.0,30.0,0.0,1280.0,720.0,1280.0,720.0,1468.6047800548656,1468.6047800548656,965903,954,2020-11-20 08:48:06,950.8000000205355,90.0,22.0125786163522,1,5.0,3.0,0,30.0,1.0,1,44.0,-1.0,1.0,12,0,0,0,0,0,0,,0.022222222222222223,1995,male,caucasian,grad
18,606,0,1.0,405,4.5,4.0,15.0,0.0,1280.0,720.0,1280.0,720.0,1468.6047800548656,1468.6047800548656,972263,3337,2020-11-20 08:48:06,3295.299999997951,90.0,22.774947557686545,1,4.5,4.0,0,15.0,1.0,1,45.0,-0.75,0.7083333333333334,43,2,0,3,0,0,0,-0.2,0.008333333333333333,1995,male,caucasian,grad
18,606,0,1.0,408,3.0,4.5,0.0,180.0,1280.0,720.0,1280.0,720.0,1468.6047800548656,1468.6047800548656,976025,638,2020-11-20 08:48:06,634.3249999918044,66.0,21.9435736677116,0,4.5,3.0,0,180.0,0.0,0,46.0,0.2,1.0,4,0,0,1,0,0,0,-1.0,0.002777777777777778,1995,male,caucasian,grad
18,606,0,1.0,411,3.0,5.0,0.0,90.0,1280.0,720.0,1280.0,720.0,1468.6047800548656,1468.6047800548656,981851,2815,2020-11-20 08:48:06,2773.1299999868493,90.0,21.6696269982238,0,5.0,3.0,0,90.0,1.0,0,47.0,0.8666666666666667,0.13333333333333333,22,0,0,2,6,0,0,0.5,0.0074074074074074086,1995,male,caucasian,grad
18,606,0,1.0,414,2.0,5.0,0.0,90.0,1280.0,720.0,1280.0,720.0,1468.6047800548656,1468.6047800548656,988762,3793,2020-11-20 08:48:06,3791.4549999986775,66.0,23.464276298444503,0,5.0,2.0,0,90.0,0.0,0,48.0,1.0,-0.3170731707317073,36,0,0,0,5,0,0,1.0,0.016666666666666666,1995,male,caucasian,grad
18,606,0,1.0,417,4.0,2.0,180.0,0.0,1280.0,720.0,1280.0,720.0,1468.6047800548656,1468.6047800548656,996117,4290,2020-11-20 08:48:06,4287.255000002915,90.0,22.843822843822842,1,4.0,2.0,0,180.0,1.0,1,49.0,-1.0,0.30434782608695654,42,4,0,0,0,0,0,1.0,0.005555555555555556,1995,male,caucasian,grad
18,606,0,1.0,420,4.0,3.5,15.0,0.0,1280.0,720.0,1280.0,720.0,1468.6047800548656,1468.6047800548656,1009096,9925,2020-11-20 08:48:06,9921.755000017583,66.0,20.65491183879093,1,4.0,3.5,0,15.0,0.0,0,50.0,0.3055555555555556,0.05555555555555555,42,1,2,11,7,2,7,-0.23809523809523808,0.00952380952380952,1995,male,caucasian,grad
18,606,0,1.0,423,4.0,4.5,0.0,7.0,1280.0,720.0,1280.0,720.0,1468.6047800548656,1468.6047800548656,1014370,2186,2020-11-20 08:48:06,2183.149999997113,66.0,19.670631290027448,0,4.5,4.0,0,7.0,0.0,0,51.0,-0.7142857142857143,0.14285714285714285,15,2,0,2,0,1,1,-0.2,0.017857142857142856,1995,male,caucasian,grad
18,606,0,1.0,426,4.5,5.0,0.0,30.0,1280.0,720.0,1280.0,720.0,1468.6047800548656,1468.6047800548656,1021117,3652,2020-11-20 08:48:06,3648.664999986067,90.0,23.274917853231106,0,5.0,4.5,0,30.0,1.0,0,52.0,0.8983050847457628,-0.1864406779661017,52,0,0,1,5,0,1,0.6666666666666666,0.003703703703703705,1995,male,caucasian,grad
18,606,0,1.0,429,3.5,4.0,0.0,7.0,1280.0,720.0,1280.0,720.0,1468.6047800548656,1468.6047800548656,1027141,2964,2020-11-20 08:48:06,2960.35499998834,66.0,22.604588394062077,0,4.0,3.5,0,7.0,0.0,0,53.0,0.9473684210526315,-0.15789473684210525,34,0,0,1,2,0,1,0.3333333333333333,0.020408163265306114,1995,male,caucasian,grad
18,606,0,1.0,432,5.0,3.5,180.0,0.0,1280.0,720.0,1280.0,720.0,1468.6047800548656,1468.6047800548656,1034115,3881,2020-11-20 08:48:06,3877.425000013318,90.0,23.447565060551405,1,5.0,3.5,0,180.0,1.0,1,54.0,-0.7090909090909091,-0.34545454545454546,46,6,1,1,0,0,1,0.7142857142857143,0.002380952380952381,1995,male,caucasian,grad
18,606,0,1.0,435,4.5,3.5,365.0,0.0,1280.0,720.0,1280.0,720.0,1468.6047800548656,1468.6047800548656,1040183,2987,2020-11-20 08:48:06,2984.4150000135414,66.0,23.434884499497823,1,4.5,3.5,0,365.0,0.0,0,55.0,-0.6744186046511628,-0.11627906976744186,37,2,2,1,0,0,1,0.3333333333333333,0.000782778864970646,1995,male,caucasian,grad
18,606,0,1.0,438,2.5,4.0,0.0,365.0,1280.0,720.0,1280.0,720.0,1468.6047800548656,1468.6047800548656,1045688,2412,2020-11-20 08:48:06,2408.860000025016,66.0,23.217247097844112,0,4.0,2.5,0,365.0,0.0,0,56.0,-0.7777777777777778,0.8518518518518519,24,2,0,1,0,0,0,0.3333333333333333,0.0016438356164383565,1995,male,caucasian,grad
18,606,0,1.0,441,5.0,1.0,365.0,0.0,1280.0,720.0,1280.0,720.0,1468.6047800548656,1468.6047800548656,1051490,2721,2020-11-20 08:48:06,2717.785000015283,90.0,23.520764424843808,1,5.0,1.0,0,365.0,1.0,1,57.0,0.21428571428571427,1.0,26,0,0,2,0,0,0,-1.0,0.010958904109589041,1995,male,caucasian,grad
18,606,0,1.0,444,4.0,2.0,90.0,0.0,1280.0,720.0,1280.0,720.0,1468.6047800548656,1468.6047800548656,1058740,4185,2020-11-20 08:48:06,4182.739999989281,90.0,23.416965352449225,1,4.0,2.0,0,90.0,1.0,1,58.0,0.034482758620689655,0.9310344827586207,24,1,0,4,0,0,0,-0.6,0.011111111111111112,1995,male,caucasian,grad
18,606,0,1.0,447,2.5,5.0,0.0,365.0,1280.0,720.0,1280.0,720.0,1468.6047800548656,1468.6047800548656,1064219,2401,2020-11-20 08:48:06,2398.069999995641,66.0,23.323615160349853,0,5.0,2.5,0,365.0,0.0,0,59.0,-0.8181818181818182,0.8181818181818182,18,1,0,1,1,1,0,0.0,0.0027397260273972603,1995,male,caucasian,grad
18,606,0,1.0,450,5.0,2.5,180.0,0.0,1280.0,720.0,1280.0,720.0,1468.6047800548656,1468.6047800548656,1069307,1990,2020-11-20 08:48:06,1987.0200000004845,90.0,22.613065326633166,1,5.0,2.5,0,180.0,1.0,1,60.0,0.875,0.875,13,0,0,1,1,0,1,0.0,0.005555555555555556,1995,male,caucasian,grad
18,606,0,1.0,453,4.5,1.5,90.0,0.0,1280.0,720.0,1280.0,720.0,1468.6047800548656,1468.6047800548656,1073629,1261,2020-11-20 08:48:06,1258.3300000114832,90.0,23.79064234734338,1,4.5,1.5,0,90.0,1.0,1,61.0,1.0,1.0,11,0,0,0,0,0,0,,0.022222222222222223,1995,male,caucasian,grad
18,606,0,1.0,456,3.0,4.5,0.0,30.0,1280.0,720.0,1280.0,720.0,1468.6047800548656,1468.6047800548656,1081014,4228,2020-11-20 08:48:06,4223.900000011781,66.0,23.178807947019866,0,4.5,3.0,0,30.0,0.0,0,62.0,-0.3142857142857143,0.6571428571428571,27,3,0,1,2,1,1,0.42857142857142855,0.016666666666666666,1995,male,caucasian,grad
18,606,0,1.0,459,3.5,4.0,0.0,90.0,1280.0,720.0,1280.0,720.0,1468.6047800548656,1468.6047800548656,1085656,1570,2020-11-20 08:48:06,1568.0200000060725,66.0,22.29299363057325,0,4.0,3.5,0,90.0,0.0,0,63.0,-0.2857142857142857,0.8571428571428571,10,0,0,2,1,0,1,-0.3333333333333333,0.0015873015873015866,1995,male,caucasian,grad
18,606,0,1.0,462,4.0,4.5,0.0,180.0,1280.0,720.0,1280.0,720.0,1468.6047800548656,1468.6047800548656,1091725,2993,2020-11-20 08:48:06,2991.114999982529,66.0,23.387905111927832,0,4.5,4.0,0,180.0,0.0,0,64.0,-0.08333333333333333,0.8333333333333334,18,1,0,3,1,1,0,-0.3333333333333333,0.0006944444444444445,1995,male,caucasian,grad
18,606,0,1.0,465,5.0,4.0,30.0,0.0,1280.0,720.0,1280.0,720.0,1468.6047800548656,1468.6047800548656,1096741,1931,2020-11-20 08:48:06,1928.779999987455,90.0,23.30398757120663,1,5.0,4.0,0,30.0,1.0,1,65.0,-0.3076923076923077,0.3076923076923077,22,1,1,2,0,0,0,-0.3333333333333333,0.008333333333333333,1995,male,caucasian,grad
18,606,0,1.0,468,4.0,1.0,365.0,0.0,1280.0,720.0,1280.0,720.0,1468.6047800548656,1468.6047800548656,1101378,1565,2020-11-20 08:48:06,1562.485000002198,90.0,23.003194888178914,1,4.0,1.0,0,365.0,1.0,1,66.0,0.8666666666666667,0.6,12,0,0,1,2,0,0,0.3333333333333333,0.00821917808219178,1995,male,caucasian,grad
18,606,0,1.0,471,4.5,5.0,0.0,7.0,1280.0,720.0,1280.0,720.0,1468.6047800548656,1468.6047800548656,1109813,5288,2020-11-20 08:48:06,5284.849999996368,66.0,23.449319213313164,0,5.0,4.5,0,7.0,0.0,0,67.0,-0.5686274509803921,0.7647058823529411,44,1,0,4,0,1,1,-0.6666666666666666,0.01587301587301588,1995,male,caucasian,grad
18,606,0,1.0,477,4.0,3.0,180.0,0.0,1280.0,720.0,1280.0,720.0,1468.6047800548656,1468.6047800548656,1132457,4573,2020-11-20 08:48:06,4570.214999985183,90.0,23.616881696916685,1,4.0,3.0,0,180.0,1.0,1,69.0,-0.6956521739130435,0.043478260869565216,38,4,2,2,0,0,0,0.3333333333333333,0.0018518518518518515,1995,male,caucasian,grad
18,606,0,1.0,480,4.5,5.0,0.0,15.0,1280.0,720.0,1280.0,720.0,1468.6047800548656,1468.6047800548656,1139414,3905,2020-11-20 08:48:06,3900.610000011511,90.0,23.81562099871959,0,5.0,4.5,0,15.0,1.0,0,70.0,0.3157894736842105,0.10526315789473684,28,1,2,3,3,1,0,0.0,0.00740740740740741,1995,male,caucasian,grad
18,606,0,1.0,483,3.0,4.0,0.0,90.0,1280.0,720.0,1280.0,720.0,1468.6047800548656,1468.6047800548656,1146516,4003,2020-11-20 08:48:06,4000.4199999966663,66.0,23.73220084936298,0,4.0,3.0,0,90.0,0.0,0,71.0,0.45454545454545453,0.45454545454545453,45,1,1,1,5,0,2,0.7142857142857143,0.003703703703703703,1995,male,caucasian,grad
18,606,0,1.0,486,1.5,4.5,0.0,365.0,1280.0,720.0,1280.0,720.0,1468.6047800548656,1468.6047800548656,1152110,2540,2020-11-20 08:48:06,2535.7599999988447,66.0,23.228346456692915,0,4.5,1.5,0,365.0,0.0,0,72.0,0.45454545454545453,0.6363636363636364,28,0,0,2,2,0,1,0.0,0.005479452054794521,1995,male,caucasian,grad
18,606,0,1.0,489,4.5,1.5,365.0,0.0,1280.0,720.0,1280.0,720.0,1468.6047800548656,1468.6047800548656,1157498,2327,2020-11-20 08:48:06,2323.94000000204,90.0,23.205844434894715,1,4.5,1.5,0,365.0,1.0,1,73.0,-0.14285714285714285,0.42857142857142855,31,1,0,1,1,1,0,0.0,0.005479452054794521,1995,male,caucasian,grad
18,606,0,1.0,492,4.0,5.0,0.0,90.0,1280.0,720.0,1280.0,720.0,1468.6047800548656,1468.6047800548656,1163382,2800,2020-11-20 08:48:06,2797.4800000083637,66.0,23.571428571428573,0,5.0,4.0,0,90.0,0.0,0,74.0,-0.22580645161290322,-0.0967741935483871,26,1,0,1,2,1,0,0.2,0.002777777777777778,1995,male,caucasian,grad
18,606,0,1.0,495,4.0,3.5,7.0,0.0,1280.0,720.0,1280.0,720.0,1468.6047800548656,1468.6047800548656,1168554,2101,2020-11-20 08:48:06,2098.200000007637,90.0,23.322227510709187,1,4.0,3.5,0,7.0,1.0,1,75.0,-0.5789473684210527,0.15789473684210525,16,1,2,0,0,0,0,1.0,0.020408163265306114,1995,male,caucasian,grad
20,168,0,1.0,273,5.0,4.0,15.0,0.0,2048.0,1152.0,2048.0,1152.0,2349.767648087785,2349.767648087785,1223508,4608,2020-11-24 22:27:50,4603.0,66.0,14.322916666666666,1,5.0,4.0,0,15.0,0.0,0,1.0,0.3076923076923077,-0.15384615384615385,4,0,10,0,7,5,0,0.16666666666666666,0.016666666666666666,1991,male,caucasian,grad
20,168,0,1.0,279,2.5,5.0,0.0,365.0,2048.0,1152.0,2048.0,1152.0,2349.767648087785,2349.767648087785,1250540,4493,2020-11-24 22:27:50,4488.0,90.0,12.686401068328511,0,5.0,2.5,0,365.0,1.0,0,3.0,0.4,0.9,13,0,0,5,1,0,1,-0.6666666666666666,0.0027397260273972603,1991,male,caucasian,grad
20,168,0,1.0,285,4.0,3.0,90.0,0.0,2048.0,1152.0,2048.0,1152.0,2349.767648087785,2349.767648087785,1272800,5627,2020-11-24 22:27:50,5624.0,66.0,12.795450506486583,1,4.0,3.0,0,90.0,0.0,0,5.0,0.8918918918918919,0.6756756756756757,25,0,0,2,8,0,2,0.6,0.003703703703703703,1991,male,caucasian,grad
20,168,0,1.0,288,1.5,5.0,0.0,365.0,2048.0,1152.0,2048.0,1152.0,2349.767648087785,2349.767648087785,1280860,4956,2020-11-24 22:27:50,4952.0,90.0,14.931396287328491,0,5.0,1.5,0,365.0,1.0,0,6.0,-0.5384615384615384,0.38461538461538464,22,6,0,3,0,3,5,0.0,0.006392694063926941,1991,male,caucasian,grad
20,168,0,1.0,291,2.0,4.0,0.0,90.0,2048.0,1152.0,2048.0,1152.0,2349.767648087785,2349.767648087785,1290446,6494,2020-11-24 22:27:50,6490.0,90.0,14.93686479827533,0,4.0,2.0,0,90.0,1.0,0,7.0,-0.8823529411764706,0.5294117647058824,27,18,1,3,0,1,1,0.6363636363636364,0.011111111111111112,1991,male,caucasian,grad
20,168,0,1.0,297,4.5,3.5,365.0,0.0,2048.0,1152.0,2048.0,1152.0,2349.767648087785,2349.767648087785,1316404,2727,2020-11-24 22:27:50,2723.0,66.0,12.834616795012835,1,4.5,3.5,0,365.0,0.0,0,9.0,-0.6,0.4666666666666667,8,3,0,4,0,0,0,-0.14285714285714285,0.000782778864970646,1991,male,caucasian,grad
20,168,0,1.0,300,5.0,2.0,180.0,0.0,2048.0,1152.0,2048.0,1152.0,2349.767648087785,2349.767648087785,1326246,6780,2020-11-24 22:27:50,6776.0,66.0,15.044247787610619,1,5.0,2.0,0,180.0,0.0,0,10.0,-0.8260869565217391,0.30434782608695654,31,8,1,0,1,4,1,0.38461538461538464,0.008333333333333333,1991,male,caucasian,grad
20,168,0,1.0,303,4.5,4.0,15.0,0.0,2048.0,1152.0,2048.0,1152.0,2349.767648087785,2349.767648087785,1333534,4230,2020-11-24 22:27:50,4224.0,66.0,14.42080378250591,1,4.5,4.0,0,15.0,0.0,0,11.0,-0.6551724137931034,0.3103448275862069,19,4,1,5,0,0,0,-0.1111111111111111,0.008333333333333333,1991,male,caucasian,grad
20,168,0,1.0,306,4.0,4.5,0.0,7.0,2048.0,1152.0,2048.0,1152.0,2349.767648087785,2349.767648087785,1341542,4937,2020-11-24 22:27:50,4932.0,66.0,17.622037674701236,0,4.5,4.0,0,7.0,0.0,0,12.0,0.02857142857142857,0.37142857142857144,16,1,0,9,3,1,5,-0.42857142857142855,0.017857142857142856,1991,male,caucasian,grad
20,168,0,1.0,309,2.0,4.5,0.0,90.0,2048.0,1152.0,2048.0,1152.0,2349.767648087785,2349.767648087785,1351755,7150,2020-11-24 22:27:50,7148.0,66.0,16.363636363636363,0,4.5,2.0,0,90.0,0.0,0,13.0,-0.13725490196078433,0.37254901960784315,31,3,0,5,5,3,4,0.0,0.013888888888888888,1991,male,caucasian,grad
20,168,0,1.0,312,4.0,5.0,0.0,30.0,2048.0,1152.0,2048.0,1152.0,2349.767648087785,2349.767648087785,1358109,3251,2020-11-24 22:27:50,3248.0,90.0,16.302676099661642,0,5.0,4.0,0,30.0,1.0,0,14.0,-0.047619047619047616,-0.14285714285714285,15,1,0,0,0,2,3,-0.3333333333333333,0.008333333333333333,1991,male,caucasian,grad
20,168,0,1.0,315,2.0,4.0,0.0,180.0,2048.0,1152.0,2048.0,1152.0,2349.767648087785,2349.767648087785,1363436,2244,2020-11-24 22:27:50,2240.0,90.0,14.705882352941176,0,4.0,2.0,0,180.0,1.0,0,15.0,-0.5,1.0,4,0,0,4,0,0,0,-1.0,0.005555555555555556,1991,male,caucasian,grad
20,168,0,1.0,318,4.5,3.0,180.0,0.0,2048.0,1152.0,2048.0,1152.0,2349.767648087785,2349.767648087785,1370192,3695,2020-11-24 22:27:50,3691.0,66.0,17.050067658998646,1,4.5,3.0,0,180.0,0.0,0,16.0,-0.45454545454545453,0.36363636363636365,10,5,3,2,1,0,1,0.5,0.002777777777777778,1991,male,caucasian,grad
20,168,0,1.0,321,4.5,4.0,90.0,0.0,2048.0,1152.0,2048.0,1152.0,2349.767648087785,2349.767648087785,1377828,4558,2020-11-24 22:27:50,4554.0,66.0,16.89337428696797,1,4.5,4.0,0,90.0,0.0,0,17.0,-0.2571428571428571,0.7142857142857143,19,2,2,10,1,1,0,-0.5714285714285714,0.001388888888888889,1991,male,caucasian,grad
20,168,0,1.0,324,2.0,5.0,0.0,365.0,2048.0,1152.0,2048.0,1152.0,2349.767648087785,2349.767648087785,1389994,9094,2020-11-24 22:27:50,9090.0,90.0,15.174840554211569,0,5.0,2.0,0,365.0,1.0,0,18.0,-0.04,0.76,33,1,0,10,3,1,2,-0.4666666666666667,0.00410958904109589,1991,male,caucasian,grad
20,168,0,1.0,327,4.5,3.5,30.0,0.0,2048.0,1152.0,2048.0,1152.0,2349.767648087785,2349.767648087785,1396003,2938,2020-11-24 22:27:50,2934.0,90.0,14.295439074200136,1,4.5,3.5,0,30.0,1.0,1,19.0,-0.047619047619047616,1.0,11,0,0,10,0,0,0,-1.0,0.009523809523809526,1991,male,caucasian,grad
20,168,0,1.0,330,4.5,3.5,180.0,0.0,2048.0,1152.0,2048.0,1152.0,2349.767648087785,2349.767648087785,1402188,3070,2020-11-24 22:27:50,3067.0,66.0,14.657980456026058,1,4.5,3.5,0,180.0,0.0,0,20.0,-0.21428571428571427,0.6428571428571429,10,4,3,11,0,0,0,-0.4666666666666667,0.0015873015873015877,1991,male,caucasian,grad
20,168,0,1.0,333,4.0,1.5,90.0,0.0,2048.0,1152.0,2048.0,1152.0,2349.767648087785,2349.767648087785,1409690,4385,2020-11-24 22:27:50,4379.0,90.0,17.559863169897376,1,4.0,1.5,0,90.0,1.0,1,21.0,-0.7391304347826086,0.7391304347826086,15,4,0,4,0,0,0,0.0,0.018518518518518517,1991,male,caucasian,grad
20,168,0,1.0,336,4.5,1.5,180.0,0.0,2048.0,1152.0,2048.0,1152.0,2349.767648087785,2349.767648087785,1417504,4760,2020-11-24 22:27:50,4757.0,66.0,17.436974789915965,1,4.5,1.5,0,180.0,0.0,0,22.0,-0.9069767441860465,0.8604651162790697,37,2,0,4,0,0,0,-0.3333333333333333,0.011111111111111112,1991,male,caucasian,grad
20,168,0,1.0,339,2.5,4.0,0.0,90.0,2048.0,1152.0,2048.0,1152.0,2349.767648087785,2349.767648087785,1422720,2097,2020-11-24 22:27:50,2093.0,66.0,16.690510252742012,0,4.0,2.5,0,90.0,0.0,0,23.0,-0.1111111111111111,0.5555555555555556,6,0,0,1,1,0,1,0.0,0.006666666666666668,1991,male,caucasian,grad
20,168,0,1.0,342,1.0,4.5,0.0,180.0,2048.0,1152.0,2048.0,1152.0,2349.767648087785,2349.767648087785,1428241,2409,2020-11-24 22:27:50,2407.0,90.0,14.9439601494396,0,4.5,1.0,0,180.0,1.0,0,24.0,-0.47368421052631576,0.8947368421052632,12,0,0,5,0,0,2,-1.0,0.019444444444444445,1991,male,caucasian,grad
20,168,0,1.0,345,1.5,4.5,0.0,90.0,2048.0,1152.0,2048.0,1152.0,2349.767648087785,2349.767648087785,1434521,3156,2020-11-24 22:27:50,3151.0,66.0,13.307984790874524,0,4.5,1.5,0,90.0,0.0,0,25.0,0.6,0.4666666666666667,8,0,0,4,2,0,1,-0.3333333333333333,0.022222222222222223,1991,male,caucasian,grad
20,168,0,1.0,348,5.0,4.0,30.0,0.0,2048.0,1152.0,2048.0,1152.0,2349.767648087785,2349.767648087785,1439803,2250,2020-11-24 22:27:50,2218.0,66.0,14.222222222222221,1,5.0,4.0,0,30.0,0.0,0,26.0,0.16666666666666666,0.3333333333333333,8,0,2,2,0,0,0,-1.0,0.008333333333333333,1991,male,caucasian,grad
20,168,0,1.0,351,4.5,4.0,30.0,0.0,2048.0,1152.0,2048.0,1152.0,2349.767648087785,2349.767648087785,1448821,5973,2020-11-24 22:27:50,5969.0,66.0,12.89134438305709,1,4.5,4.0,0,30.0,0.0,0,27.0,-0.4,0.5333333333333333,12,4,3,9,1,1,0,-0.3333333333333333,0.004166666666666667,1991,male,caucasian,grad
20,168,0,1.0,357,5.0,3.0,180.0,0.0,2048.0,1152.0,2048.0,1152.0,2349.767648087785,2349.767648087785,1471311,3303,2020-11-24 22:27:50,3298.0,66.0,14.834998486224645,1,5.0,3.0,0,180.0,0.0,0,29.0,-0.625,0.375,11,1,2,2,0,0,0,-0.3333333333333333,0.0037037037037037043,1991,male,caucasian,grad
20,168,0,1.0,360,1.5,5.0,0.0,180.0,2048.0,1152.0,2048.0,1152.0,2349.767648087785,2349.767648087785,1478531,4098,2020-11-24 22:27:50,4094.0,90.0,14.397266959492436,0,5.0,1.5,0,180.0,1.0,0,30.0,0.6,0.6,16,0,0,4,3,0,2,-0.14285714285714285,0.012962962962962964,1991,male,caucasian,grad
20,168,0,1.0,363,1.5,4.0,0.0,365.0,2048.0,1152.0,2048.0,1152.0,2349.767648087785,2349.767648087785,1484604,2976,2020-11-24 22:27:50,2971.0,90.0,13.10483870967742,0,4.0,1.5,0,365.0,1.0,0,31.0,0.6,0.7333333333333333,10,0,0,3,1,0,1,-0.5,0.0045662100456621,1991,male,caucasian,grad
20,168,0,1.0,366,3.5,5.0,0.0,365.0,2048.0,1152.0,2048.0,1152.0,2349.767648087785,2349.767648087785,1490518,2846,2020-11-24 22:27:50,2842.0,90.0,14.054813773717498,0,5.0,3.5,0,365.0,1.0,0,32.0,0.6470588235294118,0.17647058823529413,9,0,1,3,2,1,1,-0.3333333333333333,0.0011741682974559689,1991,male,caucasian,grad
20,168,0,1.0,369,4.5,3.0,30.0,0.0,2048.0,1152.0,2048.0,1152.0,2349.767648087785,2349.767648087785,1499444,5861,2020-11-24 22:27:50,5856.0,66.0,16.038218734004435,1,4.5,3.0,0,30.0,0.0,0,33.0,-0.07692307692307693,-0.1794871794871795,24,2,2,2,2,5,2,-0.2727272727272727,0.016666666666666666,1991,male,caucasian,grad
20,168,0,1.0,375,4.5,1.5,365.0,0.0,2048.0,1152.0,2048.0,1152.0,2349.767648087785,2349.767648087785,1520069,4301,2020-11-24 22:27:50,4297.0,66.0,14.182748198093467,1,4.5,1.5,0,365.0,0.0,0,35.0,-0.35714285714285715,0.9285714285714286,15,2,0,11,0,0,0,-0.6923076923076923,0.005479452054794521,1991,male,caucasian,grad
20,168,0,1.0,378,2.5,5.0,0.0,90.0,2048.0,1152.0,2048.0,1152.0,2349.767648087785,2349.767648087785,1528859,5714,2020-11-24 22:27:50,5709.0,90.0,14.00070003500175,0,5.0,2.5,0,90.0,1.0,0,36.0,0.6521739130434783,0.9130434782608695,28,0,0,14,3,0,1,-0.6470588235294118,0.011111111111111112,1991,male,caucasian,grad
20,168,0,1.0,381,3.5,4.5,0.0,365.0,2048.0,1152.0,2048.0,1152.0,2349.767648087785,2349.767648087785,1533942,1995,2020-11-24 22:27:50,1990.0,90.0,13.032581453634085,0,4.5,3.5,0,365.0,1.0,0,37.0,0.5384615384615384,0.5384615384615384,8,0,0,1,1,0,3,0.0,0.000782778864970646,1991,male,caucasian,grad
20,168,0,1.0,384,5.0,1.0,180.0,0.0,2048.0,1152.0,2048.0,1152.0,2349.767648087785,2349.767648087785,1542579,5584,2020-11-24 22:27:50,5581.0,66.0,13.25214899713467,1,5.0,1.0,0,180.0,0.0,0,38.0,-0.02564102564102564,0.4358974358974359,9,3,3,18,0,5,1,-0.7692307692307693,0.022222222222222223,1991,male,caucasian,grad
20,168,0,1.0,387,5.0,2.5,90.0,0.0,2048.0,1152.0,2048.0,1152.0,2349.767648087785,2349.767648087785,1549925,4257,2020-11-24 22:27:50,4251.0,90.0,12.684989429175475,1,5.0,2.5,0,90.0,1.0,1,39.0,-0.6842105263157895,-0.15789473684210525,10,3,0,2,0,3,1,-0.25,0.011111111111111112,1991,male,caucasian,grad
20,168,0,1.0,390,4.5,2.5,180.0,0.0,2048.0,1152.0,2048.0,1152.0,2349.767648087785,2349.767648087785,1554859,1842,2020-11-24 22:27:50,1837.0,66.0,11.400651465798045,1,4.5,2.5,0,180.0,0.0,0,40.0,-0.3333333333333333,-0.3333333333333333,5,1,1,2,0,2,1,-0.6,0.0044444444444444444,1991,male,caucasian,grad
20,168,0,1.0,393,5.0,4.5,30.0,0.0,2048.0,1152.0,2048.0,1152.0,2349.767648087785,2349.767648087785,1563260,5335,2020-11-24 22:27:50,5331.0,66.0,11.62136832239925,1,5.0,4.5,0,30.0,0.0,0,41.0,-0.8620689655172413,-0.3103448275862069,19,6,2,2,0,0,0,0.5,0.003703703703703705,1991,male,caucasian,grad
20,168,0,1.0,399,4.0,4.5,0.0,30.0,2048.0,1152.0,2048.0,1152.0,2349.767648087785,2349.767648087785,1586377,5484,2020-11-24 22:27:50,5481.0,90.0,16.958424507658645,0,4.5,4.0,0,30.0,1.0,0,43.0,0.7073170731707317,-0.21951219512195122,27,0,0,4,3,5,2,-0.5,0.004166666666666667,1991,male,caucasian,grad
20,168,0,1.0,402,5.0,4.0,90.0,0.0,2048.0,1152.0,2048.0,1152.0,2349.767648087785,2349.767648087785,1593364,3909,2020-11-24 22:27:50,3905.0,66.0,16.88411358403684,1,5.0,4.0,0,90.0,0.0,0,44.0,-0.38461538461538464,-0.38461538461538464,11,3,0,2,0,7,3,-0.5,0.002777777777777778,1991,male,caucasian,grad
20,168,0,1.0,405,3.0,4.0,0.0,90.0,2048.0,1152.0,2048.0,1152.0,2349.767648087785,2349.767648087785,1599575,3168,2020-11-24 22:27:50,3163.0,90.0,16.414141414141415,0,4.0,3.0,0,90.0,1.0,0,45.0,0.3333333333333333,-0.2222222222222222,11,0,0,3,1,2,1,-0.6666666666666666,0.003703703703703703,1991,male,caucasian,grad
20,168,0,1.0,408,4.0,3.5,90.0,0.0,2048.0,1152.0,2048.0,1152.0,2349.767648087785,2349.767648087785,1604684,2036,2020-11-24 22:27:50,2033.0,66.0,14.734774066797643,1,4.0,3.5,0,90.0,0.0,0,46.0,-0.8333333333333334,0.3333333333333333,6,4,0,2,0,0,0,0.3333333333333333,0.0015873015873015866,1991,male,caucasian,grad
20,168,0,1.0,411,5.0,2.0,365.0,0.0,2048.0,1152.0,2048.0,1152.0,2349.767648087785,2349.767648087785,1610540,2734,2020-11-24 22:27:50,2728.0,66.0,15.727871250914411,1,5.0,2.0,0,365.0,0.0,0,47.0,-0.36363636363636365,0.18181818181818182,13,2,0,3,1,1,2,-0.14285714285714285,0.00410958904109589,1991,male,caucasian,grad
20,168,0,1.0,414,4.5,5.0,0.0,90.0,2048.0,1152.0,2048.0,1152.0,2349.767648087785,2349.767648087785,1616142,2496,2020-11-24 22:27:50,2492.0,90.0,15.224358974358974,0,5.0,4.5,0,90.0,1.0,0,48.0,-0.09090909090909091,0.8181818181818182,7,0,0,3,1,0,0,-0.5,0.0012345679012345685,1991,male,caucasian,grad
20,168,0,1.0,417,4.0,1.0,180.0,0.0,2048.0,1152.0,2048.0,1152.0,2349.767648087785,2349.767648087785,1621779,2527,2020-11-24 22:27:50,2524.0,66.0,14.246141669964384,1,4.0,1.0,0,180.0,0.0,0,49.0,-0.05263157894736842,0.5789473684210527,13,2,1,3,0,0,0,-0.2,0.016666666666666666,1991,male,caucasian,grad
20,168,0,1.0,420,4.5,3.5,90.0,0.0,2048.0,1152.0,2048.0,1152.0,2349.767648087785,2349.767648087785,1627336,2437,2020-11-24 22:27:50,2435.0,66.0,13.130898645876076,1,4.5,3.5,0,90.0,0.0,0,50.0,-0.06666666666666667,0.4666666666666667,9,2,0,2,0,2,0,-0.3333333333333333,0.0031746031746031755,1991,male,caucasian,grad
20,168,0,1.0,423,5.0,3.0,90.0,0.0,2048.0,1152.0,2048.0,1152.0,2349.767648087785,2349.767648087785,1635402,4966,2020-11-24 22:27:50,4963.0,66.0,16.31091421667338,1,5.0,3.0,0,90.0,0.0,0,51.0,-0.08108108108108109,-0.5135135135135135,21,2,2,1,3,8,0,-0.2857142857142857,0.0074074074074074086,1991,male,caucasian,grad
20,168,0,1.0,426,4.0,2.0,90.0,0.0,2048.0,1152.0,2048.0,1152.0,2349.767648087785,2349.767648087785,1641947,3480,2020-11-24 22:27:50,3476.0,66.0,16.666666666666668,1,4.0,2.0,0,90.0,0.0,0,52.0,0.23809523809523808,-0.6190476190476191,11,1,0,1,4,4,0,0.0,0.011111111111111112,1991,male,caucasian,grad
20,168,0,1.0,429,1.0,4.0,0.0,180.0,2048.0,1152.0,2048.0,1152.0,2349.767648087785,2349.767648087785,1649640,4627,2020-11-24 22:27:50,4622.0,90.0,16.425329587205532,0,4.0,1.0,0,180.0,1.0,0,53.0,0.23076923076923078,-0.38461538461538464,28,1,1,2,3,3,1,-0.1111111111111111,0.016666666666666666,1991,male,caucasian,grad
20,168,0,1.0,432,5.0,3.0,365.0,0.0,2048.0,1152.0,2048.0,1152.0,2349.767648087785,2349.767648087785,1656002,3304,2020-11-24 22:27:50,3300.0,66.0,16.646489104116224,1,5.0,3.0,0,365.0,0.0,0,54.0,-0.18181818181818182,0.09090909090909091,13,1,1,2,3,2,0,0.0,0.0018264840182648403,1991,male,caucasian,grad
20,168,0,1.0,435,4.5,1.0,180.0,0.0,2048.0,1152.0,2048.0,1152.0,2349.767648087785,2349.767648087785,1662800,3728,2020-11-24 22:27:50,3723.0,66.0,16.899141630901287,1,4.5,1.0,0,180.0,0.0,0,55.0,-0.0967741935483871,-0.16129032258064516,17,1,3,4,1,4,1,-0.6,0.019444444444444445,1991,male,caucasian,grad
20,168,0,1.0,438,5.0,4.5,7.0,0.0,2048.0,1152.0,2048.0,1152.0,2349.767648087785,2349.767648087785,1672571,6692,2020-11-24 22:27:50,6688.0,90.0,16.586969515839808,1,5.0,4.5,0,7.0,1.0,1,56.0,-0.35714285714285715,0.2857142857142857,21,3,0,2,0,2,0,-0.14285714285714285,0.01587301587301588,1991,male,caucasian,grad
20,168,0,1.0,441,3.5,4.0,0.0,30.0,2048.0,1152.0,2048.0,1152.0,2349.767648087785,2349.767648087785,1680103,4484,2020-11-24 22:27:50,4480.0,90.0,15.388046387154327,0,4.0,3.5,0,30.0,1.0,0,57.0,0.35135135135135137,-0.1891891891891892,23,1,2,1,3,7,0,-0.3333333333333333,0.00476190476190476,1991,male,caucasian,grad
20,168,0,1.0,444,4.0,3.0,15.0,0.0,2048.0,1152.0,2048.0,1152.0,2349.767648087785,2349.767648087785,1686276,3090,2020-11-24 22:27:50,3087.0,90.0,14.563106796116505,1,4.0,3.0,0,15.0,1.0,1,58.0,-0.68,-0.2,18,3,0,0,0,3,1,0.0,0.022222222222222216,1991,male,caucasian,grad
20,168,0,1.0,447,3.0,4.0,0.0,365.0,2048.0,1152.0,2048.0,1152.0,2349.767648087785,2349.767648087785,1692431,3057,2020-11-24 22:27:50,3052.0,90.0,14.720314033366044,0,4.0,3.0,0,365.0,1.0,0,59.0,0.4117647058823529,0.11764705882352941,20,1,0,3,2,6,2,-0.5,0.0009132420091324198,1991,male,caucasian,grad
20,168,0,1.0,450,5.0,4.0,180.0,0.0,2048.0,1152.0,2048.0,1152.0,2349.767648087785,2349.767648087785,1697832,2338,2020-11-24 22:27:50,2334.0,66.0,16.680923866552607,1,5.0,4.0,0,180.0,0.0,0,60.0,0.17647058823529413,-0.7647058823529411,12,0,1,1,0,2,1,-1.0,0.001388888888888889,1991,male,caucasian,grad
20,168,0,1.0,453,1.5,4.0,0.0,90.0,2048.0,1152.0,2048.0,1152.0,2349.767648087785,2349.767648087785,1708677,7686,2020-11-24 22:27:50,7682.0,66.0,14.05152224824356,0,4.0,1.5,0,90.0,0.0,0,61.0,0.7931034482758621,-0.034482758620689655,38,1,0,5,11,1,2,0.3333333333333333,0.018518518518518517,1991,male,caucasian,grad
20,168,0,1.0,456,5.0,3.5,180.0,0.0,2048.0,1152.0,2048.0,1152.0,2349.767648087785,2349.767648087785,1714348,2589,2020-11-24 22:27:50,2586.0,66.0,16.60872923908845,1,5.0,3.5,0,180.0,0.0,0,62.0,-0.625,0.375,10,3,0,1,0,1,1,0.2,0.002380952380952381,1991,male,caucasian,grad
20,168,0,1.0,459,2.5,4.5,0.0,365.0,2048.0,1152.0,2048.0,1152.0,2349.767648087785,2349.767648087785,1720466,3038,2020-11-24 22:27:50,3034.0,90.0,16.787360105332457,0,4.5,2.5,0,365.0,1.0,0,63.0,1.0,0.25925925925925924,23,0,0,0,4,0,0,1.0,0.0021917808219178085,1991,male,caucasian,grad
20,168,0,1.0,462,3.0,4.0,0.0,15.0,2048.0,1152.0,2048.0,1152.0,2349.767648087785,2349.767648087785,1728681,5130,2020-11-24 22:27:50,5125.0,90.0,14.814814814814815,0,4.0,3.0,0,15.0,1.0,0,64.0,0.40540540540540543,0.1891891891891892,25,0,2,5,3,2,0,-0.4,0.022222222222222216,1991,male,caucasian,grad
20,168,0,1.0,465,3.5,4.5,0.0,15.0,2048.0,1152.0,2048.0,1152.0,2349.767648087785,2349.767648087785,1735104,3344,2020-11-24 22:27:50,3339.0,90.0,14.354066985645932,0,4.5,3.5,0,15.0,1.0,0,65.0,0.4838709677419355,0.22580645161290322,17,0,0,7,3,4,0,-0.5714285714285714,0.019047619047619053,1991,male,caucasian,grad
20,168,0,1.0,468,4.0,3.5,180.0,0.0,2048.0,1152.0,2048.0,1152.0,2349.767648087785,2349.767648087785,1739985,1802,2020-11-24 22:27:50,1800.0,66.0,14.428412874583795,1,4.0,3.5,0,180.0,0.0,0,66.0,-0.8181818181818182,0.45454545454545453,8,1,0,0,0,1,1,0.0,0.0007936507936507933,1991,male,caucasian,grad
20,168,0,1.0,471,3.5,4.0,0.0,15.0,2048.0,1152.0,2048.0,1152.0,2349.767648087785,2349.767648087785,1745538,2433,2020-11-24 22:27:50,2427.0,90.0,14.385532264693794,0,4.0,3.5,0,15.0,1.0,0,67.0,0.125,0.125,7,1,0,5,0,1,2,-0.7142857142857143,0.00952380952380952,1991,male,caucasian,grad
20,168,0,1.0,474,4.5,5.0,0.0,30.0,2048.0,1152.0,2048.0,1152.0,2349.767648087785,2349.767648087785,1751301,2644,2020-11-24 22:27:50,2641.0,90.0,13.993948562783661,0,5.0,4.5,0,30.0,1.0,0,68.0,0.6190476190476191,0.23809523809523808,13,0,1,3,2,1,1,-0.3333333333333333,0.003703703703703705,1991,male,caucasian,grad
20,168,0,1.0,477,3.5,4.0,0.0,90.0,2048.0,1152.0,2048.0,1152.0,2349.767648087785,2349.767648087785,1756733,2310,2020-11-24 22:27:50,2306.0,90.0,16.450216450216452,0,4.0,3.5,0,90.0,1.0,0,69.0,0.9,0.2,15,0,0,1,3,0,1,0.5,0.0015873015873015866,1991,male,caucasian,grad
20,168,0,1.0,480,4.5,2.0,90.0,0.0,2048.0,1152.0,2048.0,1152.0,2349.767648087785,2349.767648087785,1763232,3456,2020-11-24 22:27:50,3422.0,66.0,16.78240740740741,1,4.5,2.0,0,90.0,0.0,0,70.0,-0.8095238095238095,-0.09523809523809523,31,4,1,1,0,5,0,-0.2,0.013888888888888888,1991,male,caucasian,grad
20,168,0,1.0,483,2.5,4.5,0.0,90.0,2048.0,1152.0,2048.0,1152.0,2349.767648087785,2349.767648087785,1771774,5513,2020-11-24 22:27:50,5478.0,90.0,16.68782876836568,0,4.5,2.5,0,90.0,1.0,0,71.0,0.9333333333333333,0.16666666666666666,51,0,0,2,5,0,2,0.42857142857142855,0.008888888888888889,1991,male,caucasian,grad
20,168,0,1.0,486,4.0,1.5,180.0,0.0,2048.0,1152.0,2048.0,1152.0,2349.767648087785,2349.767648087785,1777580,2695,2020-11-24 22:27:50,2691.0,66.0,16.697588126159555,1,4.0,1.5,0,180.0,0.0,0,72.0,-0.9285714285714286,0.07142857142857142,22,4,0,2,0,0,0,0.3333333333333333,0.009259259259259259,1991,male,caucasian,grad
20,168,0,1.0,489,2.5,4.0,0.0,365.0,2048.0,1152.0,2048.0,1152.0,2349.767648087785,2349.767648087785,1785220,4544,2020-11-24 22:27:50,4541.0,90.0,15.404929577464788,0,4.0,2.5,0,365.0,1.0,0,73.0,0.21212121212121213,-0.3939393939393939,23,1,0,2,1,3,3,-0.42857142857142855,0.0016438356164383565,1991,male,caucasian,grad
20,168,0,1.0,492,2.0,4.0,0.0,365.0,2048.0,1152.0,2048.0,1152.0,2349.767648087785,2349.767648087785,1790026,1721,2020-11-24 22:27:50,1717.0,90.0,16.269610691458453,0,4.0,2.0,0,365.0,1.0,0,74.0,1.0,0.16666666666666666,11,0,0,0,1,0,0,1.0,0.0027397260273972603,1991,male,caucasian,grad
20,168,0,1.0,495,5.0,1.5,365.0,0.0,2048.0,1152.0,2048.0,1152.0,2349.767648087785,2349.767648087785,1795717,2623,2020-11-24 22:27:50,2620.0,66.0,16.012199771254288,1,5.0,1.5,0,365.0,0.0,0,75.0,-0.8461538461538461,0.46153846153846156,21,4,0,1,0,0,0,0.6,0.006392694063926941,1991,male,caucasian,grad
