run_id,condition,rt,stimulus,button_pressed,window_width,window_height,trial_type,trial_index,time_elapsed,internal_node_id,subject,chinFirst,choiceTask_amountLeftFirst,webcam_label,webcam_Id,webcam_fps,webcam_aspectRatio,webcam_height,webcam_width,bonusAmount,bonusDelay,responses,key_press,success,x_pos,y_pos,chin,task_nr,eyeData,trial_duration,option_topLeft,option_bottomLeft,option_topRight,option_bottomRight,recorded_at,ip,user_agent,device,browser,browser_version,platform,platform_version
8,1,2905.059999999935,"<div style=""position: fixed; display: inline-block; top: 20%; right: 20%; text-align: right;""><img src=""fu_logo.PNG"" alt=""[FU Berlin Logo]"" style=""width: 25%;""></div><div><br><br><p><strong>Welcome, dear participant! </strong></p><p>Thank you for your interest in and your support for our research.<br> This study is run by researchers at Freie Universität Berlin. </p></div>",0,1536,722,html-button-response,0,2909,0.0-0.0,261,1,1,"HD User Facing (04f2:b64f)",23755d03b40c84a69486d46887b9e08057f9a365646dd46e177d47ea48c22381,30,0.001388888888888889,720,1280,$4.5,"90 days","""","""","""","""","""","""","""","""","""","""","""","""","""","2021-01-13 18:57:42",,"Mozilla/5.0 (Windows NT 10.0; Win64; x64) AppleWebKit/537.36 (KHTML, like Gecko) Chrome/87.0.4280.141 Safari/537.36",WebKit,Chrome,87.0.4280.141,Windows,10.0
8,1,14050.145000000044,"""","""","""","""",survey-html-form,1,16963,0.0-1.0,261,1,1,"HD User Facing (04f2:b64f)",23755d03b40c84a69486d46887b9e08057f9a365646dd46e177d47ea48c22381,30,0.001388888888888889,720,1280,$4.5,"90 days","{""prolificID"":""Ka61Kl61""}","""","""","""","""","""","""","""","""","""","""","""","""","2021-01-13 18:57:42",,"Mozilla/5.0 (Windows NT 10.0; Win64; x64) AppleWebKit/537.36 (KHTML, like Gecko) Chrome/87.0.4280.141 Safari/537.36",WebKit,Chrome,87.0.4280.141,Windows,10.0
8,1,1368.2150000000802,"<p>Please, use only <strong>one monitor</strong> for this study.<br>If necessary, switch off the other monitors.</p>",0,"""","""",html-button-response,2,18333,0.0-2.0,261,1,1,"HD User Facing (04f2:b64f)",23755d03b40c84a69486d46887b9e08057f9a365646dd46e177d47ea48c22381,30,0.001388888888888889,720,1280,$4.5,"90 days","""","""","""","""","""","""","""","""","""","""","""","""","""","2021-01-13 18:57:42",,"Mozilla/5.0 (Windows NT 10.0; Win64; x64) AppleWebKit/537.36 (KHTML, like Gecko) Chrome/87.0.4280.141 Safari/537.36",WebKit,Chrome,87.0.4280.141,Windows,10.0
8,1,1072.5500000000939,"<p><strong>Please turn your mobile phone into Airplane Mode and close all CPU- or data-intensive programs and websites!</strong><br> (e.g. running Youtube Videos or Torrents)</p>",0,"""","""",html-button-response,3,19407,0.0-3.0,261,1,1,"HD User Facing (04f2:b64f)",23755d03b40c84a69486d46887b9e08057f9a365646dd46e177d47ea48c22381,30,0.001388888888888889,720,1280,$4.5,"90 days","""","""","""","""","""","""","""","""","""","""","""","""","""","2021-01-13 18:57:42",,"Mozilla/5.0 (Windows NT 10.0; Win64; x64) AppleWebKit/537.36 (KHTML, like Gecko) Chrome/87.0.4280.141 Safari/537.36",WebKit,Chrome,87.0.4280.141,Windows,10.0
8,1,null,"""","""","""","""",html-keyboard-response,4,19526,0.0-4.0,261,1,1,"HD User Facing (04f2:b64f)",23755d03b40c84a69486d46887b9e08057f9a365646dd46e177d47ea48c22381,30,0.001388888888888889,720,1280,$4.5,"90 days","""",null,"""","""","""","""","""","""","""","""","""","""","""","2021-01-13 18:57:42",,"Mozilla/5.0 (Windows NT 10.0; Win64; x64) AppleWebKit/537.36 (KHTML, like Gecko) Chrome/87.0.4280.141 Safari/537.36",WebKit,Chrome,87.0.4280.141,Windows,10.0
8,1,null,"""","""","""","""",html-keyboard-response,5,19633,0.0-5.0,261,1,1,"HD User Facing (04f2:b64f)",23755d03b40c84a69486d46887b9e08057f9a365646dd46e177d47ea48c22381,30,0.001388888888888889,720,1280,$4.5,"90 days","""",null,"""","""","""","""","""","""","""","""","""","""","""","2021-01-13 18:57:42",,"Mozilla/5.0 (Windows NT 10.0; Win64; x64) AppleWebKit/537.36 (KHTML, like Gecko) Chrome/87.0.4280.141 Safari/537.36",WebKit,Chrome,87.0.4280.141,Windows,10.0
8,1,62829.584999999955,"<div style=""width: 45%; text-align: left; margin: auto;""><p><strong>For a preliminary adjustment, please consider the following instructions: </strong></p><ol><li>Sit at a table and make sure that you could later rest your elbows on it. </li><li>Sit towards a window or lamp so that there are no shadows on your face. You might additionally turn on a desk lamp for that. </li></ol></div><img src=""lightInstruct.PNG"" alt=""[Eye-Tracking-Instructions]"" style=""width: 70%;"">",0,"""","""",html-button-response,6,82462,0.0-6.0,261,1,1,"HD User Facing (04f2:b64f)",23755d03b40c84a69486d46887b9e08057f9a365646dd46e177d47ea48c22381,30,0.001388888888888889,720,1280,$4.5,"90 days","""","""","""","""","""","""","""","""","""","""","""","""","""","2021-01-13 18:57:42",,"Mozilla/5.0 (Windows NT 10.0; Win64; x64) AppleWebKit/537.36 (KHTML, like Gecko) Chrome/87.0.4280.141 Safari/537.36",WebKit,Chrome,87.0.4280.141,Windows,10.0
8,1,2141.0250000000233,"<div style=""width: 45%; text-align: left; margin: auto;""><ol start='3'><li>Check the video and stay in the highlighted rectangle so that it becomes green. </li><li>Try as much as possible to follow the instructions on these pictures and avoid moving your head. If you move too much, the calibration can fail and you might not be able to finish the study. </li><li><strong>If necessary, adjust your laptop, monitor, webcam, or chair. </strong></li></ol></div><img src=""ETInstructions.PNG"" alt=""[Eye-Tracking-Instructions]"" style=""width: 70%;"">",0,"""","""",html-button-response,7,84608,0.0-7.0,261,1,1,"HD User Facing (04f2:b64f)",23755d03b40c84a69486d46887b9e08057f9a365646dd46e177d47ea48c22381,30,0.001388888888888889,720,1280,$4.5,"90 days","""","""","""","""","""","""","""","""","""","""","""","""","""","2021-01-13 18:57:42",,"Mozilla/5.0 (Windows NT 10.0; Win64; x64) AppleWebKit/537.36 (KHTML, like Gecko) Chrome/87.0.4280.141 Safari/537.36",WebKit,Chrome,87.0.4280.141,Windows,10.0
8,1,"""","""","""",1536,722,fullscreen,8,87360,0.0-8.0,261,1,1,"HD User Facing (04f2:b64f)",23755d03b40c84a69486d46887b9e08057f9a365646dd46e177d47ea48c22381,30,0.001388888888888889,720,1280,$4.5,"90 days","""","""",true,"""","""","""","""","""","""","""","""","""","""","2021-01-13 18:57:42",,"Mozilla/5.0 (Windows NT 10.0; Win64; x64) AppleWebKit/537.36 (KHTML, like Gecko) Chrome/87.0.4280.141 Safari/537.36",WebKit,Chrome,87.0.4280.141,Windows,10.0
8,1,5989.304999999949,"<div style=""width: 45%; margin: auto; text-align: justify;""><p>In order to make this measurement as accurate as possible, please rest your head on <u>one</u> of your arms, with your elbow on the desk (see image) You face may be covered a little bit but please keep your eyes visible. Get sure that you stay in the rectangle in the video stream while doing that. </p><p>The idea is to keep your head at the same position at all time so that you <strong>only move your eyes</strong> when you look at the screen. </p></div><div style=""text-align: center;""><img src=""chinstruction.PNG"" alt=""Oh, this image cannot be displayed"" style=""width: 15%;""></div><p style=""text-align: center;"">Press Space to continue </p></div><br>","""","""","""",html-keyboard-response,9,93354,0.0-9.0,261,1,1,"HD User Facing (04f2:b64f)",23755d03b40c84a69486d46887b9e08057f9a365646dd46e177d47ea48c22381,30,0.001388888888888889,720,1280,$4.5,"90 days","""",32,"""","""","""","""","""","""","""","""","""","""","""","2021-01-13 18:57:42",,"Mozilla/5.0 (Windows NT 10.0; Win64; x64) AppleWebKit/537.36 (KHTML, like Gecko) Chrome/87.0.4280.141 Safari/537.36",WebKit,Chrome,87.0.4280.141,Windows,10.0
8,1,1917.2700000000332,"<p><strong>Can you stay in that pose for a while?</strong></p><p>If not, then please adjust now in order to be comfortable.</p><br><p>Press Space to continue</p>","""","""","""",html-keyboard-response,10,95276,0.0-10.0,261,1,1,"HD User Facing (04f2:b64f)",23755d03b40c84a69486d46887b9e08057f9a365646dd46e177d47ea48c22381,30,0.001388888888888889,720,1280,$4.5,"90 days","""",32,"""","""","""","""","""","""","""","""","""","""","""","2021-01-13 18:57:42",,"Mozilla/5.0 (Windows NT 10.0; Win64; x64) AppleWebKit/537.36 (KHTML, like Gecko) Chrome/87.0.4280.141 Safari/537.36",WebKit,Chrome,87.0.4280.141,Windows,10.0
8,1,1448.1700000000128,"<div style=""position: fixed; top: 30%; left: 27.5%; width: 45%; margin: auto; text-align: justify;""><p>For calibration purposes, there will be buttons (39 in total) appearing one after another. <strong>Click 14x on each button</strong> until it turns green. Then the next button will appear. This will take around <strong>3 minutes. </strong></p><p>For an accurate measurement, please <strong><u>always</u></strong> follow the mouse cursor with your eyes. </p><br><p style=""text-align: center;"">Press Space to continue</p></div>","""","""","""",html-keyboard-response,11,96729,0.0-11.0,261,1,1,"HD User Facing (04f2:b64f)",23755d03b40c84a69486d46887b9e08057f9a365646dd46e177d47ea48c22381,30,0.001388888888888889,720,1280,$4.5,"90 days","""",32,"""","""","""","""","""","""","""","""","""","""","""","2021-01-13 18:57:42",,"Mozilla/5.0 (Windows NT 10.0; Win64; x64) AppleWebKit/537.36 (KHTML, like Gecko) Chrome/87.0.4280.141 Safari/537.36",WebKit,Chrome,87.0.4280.141,Windows,10.0
8,1,null,"""","""","""","""",html-keyboard-response,12,96936,0.0-12.0-0.0,261,1,1,"HD User Facing (04f2:b64f)",23755d03b40c84a69486d46887b9e08057f9a365646dd46e177d47ea48c22381,30,0.001388888888888889,720,1280,$4.5,"90 days","""",null,"""","""","""","""","""","""","""","""","""","""","""","2021-01-13 18:57:42",,"Mozilla/5.0 (Windows NT 10.0; Win64; x64) AppleWebKit/537.36 (KHTML, like Gecko) Chrome/87.0.4280.141 Safari/537.36",WebKit,Chrome,87.0.4280.141,Windows,10.0
8,1,null,"""","""","""","""",html-keyboard-response,13,97112,0.0-12.0-1.0,261,1,1,"HD User Facing (04f2:b64f)",23755d03b40c84a69486d46887b9e08057f9a365646dd46e177d47ea48c22381,30,0.001388888888888889,720,1280,$4.5,"90 days","""",null,"""","""","""","""","""","""","""","""","""","""","""","2021-01-13 18:57:42",,"Mozilla/5.0 (Windows NT 10.0; Win64; x64) AppleWebKit/537.36 (KHTML, like Gecko) Chrome/87.0.4280.141 Safari/537.36",WebKit,Chrome,87.0.4280.141,Windows,10.0
8,1,null,"""","""","""","""",html-keyboard-response,14,98644,0.0-12.0-2.0-0.0,261,1,1,"HD User Facing (04f2:b64f)",23755d03b40c84a69486d46887b9e08057f9a365646dd46e177d47ea48c22381,30,0.001388888888888889,720,1280,$4.5,"90 days","""",null,"""","""","""","""","""","""","""","""","""","""","""","2021-01-13 18:57:42",,"Mozilla/5.0 (Windows NT 10.0; Win64; x64) AppleWebKit/537.36 (KHTML, like Gecko) Chrome/87.0.4280.141 Safari/537.36",WebKit,Chrome,87.0.4280.141,Windows,10.0
8,1,"""","""","""",1536,864,eyetracking-calibration,15,105158,0.0-12.0-2.0-1.0,261,1,1,"HD User Facing (04f2:b64f)",23755d03b40c84a69486d46887b9e08057f9a365646dd46e177d47ea48c22381,30,0.001388888888888889,720,1280,$4.5,"90 days","""","""","""",0.2,0.2,1,0,"{""history"":[{""relative-x"":0.4856770833333333,""relative-y"":0.6111111111111112,""elapse-time"":97.8350000000355},{""relative-x"":0.4967447916666667,""relative-y"":0.6064814814814815,""elapse-time"":153.27000000001863},{""relative-x"":0.5182291666666666,""relative-y"":0.6620370370370371,""elapse-time"":183.35000000002037},{""relative-x"":0.5208333333333334,""relative-y"":0.6608796296296297,""elapse-time"":212.5300000000134},{""relative-x"":0.521484375,""relative-y"":0.6932870370370371,""elapse-time"":240.1350000000093},{""relative-x"":0.51171875,""relative-y"":0.6967592592592593,""elapse-time"":259.09999999999127},{""relative-x"":0.509765625,""relative-y"":0.7037037037037037,""elapse-time"":277.9600000000064},{""relative-x"":0.4537760416666667,""relative-y"":0.6388888888888888,""elapse-time"":296.55000000001746},{""relative-x"":0.4811197916666667,""relative-y"":0.6840277777777778,""elapse-time"":315.49499999993714},{""relative-x"":0.4739583333333333,""relative-y"":0.6516203703703703,""elapse-time"":350.95999999999185},{""relative-x"":0.4609375,""relative-y"":0.6840277777777778,""elapse-time"":378.43499999996857},{""relative-x"":0.4264322916666667,""relative-y"":0.6400462962962963,""elapse-time"":409.13499999999476},{""relative-x"":0.4557291666666667,""relative-y"":0.6770833333333334,""elapse-time"":441.0050000000192},{""relative-x"":0.4459635416666667,""relative-y"":0.6319444444444444,""elapse-time"":469.695000000007},{""relative-x"":0.4928385416666667,""relative-y"":0.6967592592592593,""elapse-time"":492.6199999999808},{""relative-x"":0.486328125,""relative-y"":0.6863425925925926,""elapse-time"":509.78499999995984},{""relative-x"":0.4895833333333333,""relative-y"":0.6770833333333334,""elapse-time"":536.5199999999895},{""relative-x"":0.484375,""relative-y"":0.6851851851851852,""elapse-time"":571.2049999999581},{""relative-x"":0.4817708333333333,""relative-y"":0.6712962962962963,""elapse-time"":601.0850000000064},{""relative-x"":0.4739583333333333,""relative-y"":0.6319444444444444,""elapse-time"":632.9250000000029},{""relative-x"":0.48828125,""relative-y"":0.6469907407407407,""elapse-time"":668.4400000000314},{""relative-x"":0.5052083333333334,""relative-y"":0.6018518518518519,""elapse-time"":709.2450000000099},{""relative-x"":0.486328125,""relative-y"":0.6423611111111112,""elapse-time"":737.425000000032},{""relative-x"":0.5149739583333334,""relative-y"":0.7129629629629629,""elapse-time"":757.1399999999267},{""relative-x"":0.5188802083333334,""relative-y"":0.7083333333333334,""elapse-time"":786.0499999999302},{""relative-x"":0.5032552083333334,""relative-y"":0.6273148148148148,""elapse-time"":807.1199999999371},{""relative-x"":0.48828125,""relative-y"":0.6168981481481481,""elapse-time"":828.8949999999895},{""relative-x"":0.4928385416666667,""relative-y"":0.5081018518518519,""elapse-time"":860.3650000000052},{""relative-x"":0.4674479166666667,""relative-y"":0.5046296296296297,""elapse-time"":893.820000000007},{""relative-x"":0.4850260416666667,""relative-y"":0.5439814814814815,""elapse-time"":927.5450000000128},{""relative-x"":0.5227864583333334,""relative-y"":0.6608796296296297,""elapse-time"":961.79499999994},{""relative-x"":0.5065104166666666,""relative-y"":0.5983796296296297,""elapse-time"":993.6799999999203},{""relative-x"":0.4733072916666667,""relative-y"":0.5682870370370371,""elapse-time"":1025.274999999965},{""relative-x"":0.4837239583333333,""relative-y"":0.6238425925925926,""elapse-time"":1058.9350000000122},{""relative-x"":0.4934895833333333,""relative-y"":0.65625,""elapse-time"":1094.5550000000076},{""relative-x"":0.517578125,""relative-y"":0.6481481481481481,""elapse-time"":1127.1699999999837},{""relative-x"":0.533203125,""relative-y"":0.6354166666666666,""elapse-time"":1156.984999999957},{""relative-x"":0.533203125,""relative-y"":0.6145833333333334,""elapse-time"":1190.8099999999395},{""relative-x"":0.548828125,""relative-y"":0.6516203703703703,""elapse-time"":1223.605000000025},{""relative-x"":0.533203125,""relative-y"":0.6504629629629629,""elapse-time"":1255.5999999999622},{""relative-x"":0.546875,""relative-y"":0.6863425925925926,""elapse-time"":1291.3199999999197},{""relative-x"":0.5416666666666666,""relative-y"":0.7268518518518519,""elapse-time"":1326.5999999999767},{""relative-x"":0.5377604166666666,""relative-y"":0.7303240740740741,""elapse-time"":1382.7149999999674},{""relative-x"":0.541015625,""relative-y"":0.7349537037037037,""elapse-time"":1426.344999999972},{""relative-x"":0.544921875,""relative-y"":0.7210648148148148,""elapse-time"":1456.850000000035},{""relative-x"":0.5690104166666666,""relative-y"":0.7662037037037037,""elapse-time"":1486.750000000029},{""relative-x"":0.5540364583333334,""relative-y"":0.7407407407407407,""elapse-time"":1520.8149999999732},{""relative-x"":0.5442708333333334,""relative-y"":0.7268518518518519,""elapse-time"":1549.3649999999616},{""relative-x"":0.5416666666666666,""relative-y"":0.7106481481481481,""elapse-time"":1577.125000000029},{""relative-x"":0.5266927083333334,""relative-y"":0.7025462962962963,""elapse-time"":1612.335000000021},{""relative-x"":0.6119791666666666,""relative-y"":0.65625,""elapse-time"":1653.1800000000221},{""relative-x"":0.5930989583333334,""relative-y"":0.6168981481481481,""elapse-time"":1684.2599999999948},{""relative-x"":0.546875,""relative-y"":0.6180555555555556,""elapse-time"":1724.489999999947},{""relative-x"":0.5188802083333334,""relative-y"":0.5578703703703703,""elapse-time"":1757.5550000000221},{""relative-x"":0.4375,""relative-y"":0.5300925925925926,""elapse-time"":1795.6500000000233},{""relative-x"":0.4186197916666667,""relative-y"":0.5138888888888888,""elapse-time"":1828.3350000000355},{""relative-x"":0.4811197916666667,""relative-y"":0.5486111111111112,""elapse-time"":1868.3250000000262},{""relative-x"":0.24609375,""relative-y"":0.2881944444444444,""elapse-time"":1902.1549999999988},{""relative-x"":0.357421875,""relative-y"":0.4166666666666667,""elapse-time"":1943.3249999999534},{""relative-x"":0.328125,""relative-y"":0.38425925925925924,""elapse-time"":1971.974999999933},{""relative-x"":0.2591145833333333,""relative-y"":0.2962962962962963,""elapse-time"":2011.1899999999441},{""relative-x"":0.2760416666666667,""relative-y"":0.3148148148148148,""elapse-time"":2046.1000000000204},{""relative-x"":0.234375,""relative-y"":0.25,""elapse-time"":2086.090000000011},{""relative-x"":0.24869791666666666,""relative-y"":0.2743055555555556,""elapse-time"":2125.8699999999662},{""relative-x"":0.3932291666666667,""relative-y"":0.4652777777777778,""elapse-time"":2166.3999999999505},{""relative-x"":0.4140625,""relative-y"":0.49074074074074076,""elapse-time"":2192.8399999999383},{""relative-x"":0.22721354166666666,""relative-y"":0.23148148148148148,""elapse-time"":2224.629999999932},{""relative-x"":0.3059895833333333,""relative-y"":0.32175925925925924,""elapse-time"":2257.704999999987},{""relative-x"":0.29296875,""relative-y"":0.32060185185185186,""elapse-time"":2291.429999999993},{""relative-x"":0.2708333333333333,""relative-y"":0.28125,""elapse-time"":2330.2049999999726},{""relative-x"":0.2643229166666667,""relative-y"":0.2800925925925926,""elapse-time"":2373.9899999999325},{""relative-x"":0.2916666666666667,""relative-y"":0.30439814814814814,""elapse-time"":2412.844999999943},{""relative-x"":0.3053385416666667,""relative-y"":0.35185185185185186,""elapse-time"":2444.7050000000017},{""relative-x"":0.251953125,""relative-y"":0.27546296296296297,""elapse-time"":2476.329999999958},{""relative-x"":0.2578125,""relative-y"":0.28703703703703703,""elapse-time"":2505.28999999995},{""relative-x"":0.23828125,""relative-y"":0.2534722222222222,""elapse-time"":2536.699999999997},{""relative-x"":0.23567708333333334,""relative-y"":0.2511574074074074,""elapse-time"":2579.7749999999214},{""relative-x"":0.24088541666666666,""relative-y"":0.2662037037037037,""elapse-time"":2616.250000000029},{""relative-x"":0.26171875,""relative-y"":0.29976851851851855,""elapse-time"":2665.570000000007},{""relative-x"":0.2506510416666667,""relative-y"":0.2777777777777778,""elapse-time"":2691.564999999973},{""relative-x"":0.22526041666666666,""relative-y"":0.22569444444444445,""elapse-time"":2731.220000000001},{""relative-x"":0.21744791666666666,""relative-y"":0.20949074074074073,""elapse-time"":2767.309999999954},{""relative-x"":0.2109375,""relative-y"":0.2037037037037037,""elapse-time"":2797.2200000000303},{""relative-x"":0.232421875,""relative-y"":0.2361111111111111,""elapse-time"":2819.439999999988},{""relative-x"":0.23502604166666666,""relative-y"":0.25462962962962965,""elapse-time"":2842.1749999999884},{""relative-x"":0.21549479166666666,""relative-y"":0.22569444444444445,""elapse-time"":2861.9850000000006},{""relative-x"":0.21549479166666666,""relative-y"":0.22569444444444445,""elapse-time"":2885.1349999999948},{""relative-x"":0.21809895833333334,""relative-y"":0.22106481481481483,""elapse-time"":2915.790000000008},{""relative-x"":0.220703125,""relative-y"":0.2222222222222222,""elapse-time"":2944.214999999982},{""relative-x"":0.24153645833333334,""relative-y"":0.25810185185185186,""elapse-time"":2969.0650000000023},{""relative-x"":0.23502604166666666,""relative-y"":0.2523148148148148,""elapse-time"":2998.0449999999255},{""relative-x"":0.232421875,""relative-y"":0.23958333333333334,""elapse-time"":3025.3649999999616},{""relative-x"":0.232421875,""relative-y"":0.23958333333333334,""elapse-time"":3045.2749999999505},{""relative-x"":0.21419270833333334,""relative-y"":0.21296296296296297,""elapse-time"":3063.374999999942},{""relative-x"":0.21419270833333334,""relative-y"":0.21296296296296297,""elapse-time"":3086.564999999944},{""relative-x"":0.20963541666666666,""relative-y"":0.21064814814814814,""elapse-time"":3109.7549999999464},{""relative-x"":0.21744791666666666,""relative-y"":0.2199074074074074,""elapse-time"":3131.0849999999773},{""relative-x"":0.22330729166666666,""relative-y"":0.22800925925925927,""elapse-time"":3185.979999999967},{""relative-x"":0.23763020833333334,""relative-y"":0.2361111111111111,""elapse-time"":3228.8300000000163},{""relative-x"":0.21549479166666666,""relative-y"":0.23032407407407407,""elapse-time"":3254.9299999999494},{""relative-x"":0.22721354166666666,""relative-y"":0.2199074074074074,""elapse-time"":3282.584999999919},{""relative-x"":0.2526041666666667,""relative-y"":0.2789351851851852,""elapse-time"":3308.814999999973},{""relative-x"":0.2734375,""relative-y"":0.2974537037037037,""elapse-time"":3342.480000000025},{""relative-x"":0.275390625,""relative-y"":0.2986111111111111,""elapse-time"":3377.7149999999674},{""relative-x"":0.275390625,""relative-y"":0.3125,""elapse-time"":3414.244999999937},{""relative-x"":0.275390625,""relative-y"":0.30671296296296297,""elapse-time"":3450.420000000013},{""relative-x"":0.2669270833333333,""relative-y"":0.30787037037037035,""elapse-time"":3472.7149999999965},{""relative-x"":0.2669270833333333,""relative-y"":0.30787037037037035,""elapse-time"":3490.904999999999},{""relative-x"":0.255859375,""relative-y"":0.2708333333333333,""elapse-time"":3510.954999999958},{""relative-x"":0.3014322916666667,""relative-y"":0.35300925925925924,""elapse-time"":3530.144999999946},{""relative-x"":0.2265625,""relative-y"":0.23726851851851852,""elapse-time"":3559.4750000000204},{""relative-x"":0.236328125,""relative-y"":0.2534722222222222,""elapse-time"":3590.7549999999464},{""relative-x"":0.22721354166666666,""relative-y"":0.23032407407407407,""elapse-time"":3622.605000000025},{""relative-x"":0.294921875,""relative-y"":0.31828703703703703,""elapse-time"":3656.0749999999825},{""relative-x"":0.31640625,""relative-y"":0.39467592592592593,""elapse-time"":3691.3349999999773},{""relative-x"":0.298828125,""relative-y"":0.3761574074074074,""elapse-time"":3725.754999999932},{""relative-x"":0.2623697916666667,""relative-y"":0.31828703703703703,""elapse-time"":3758.4749999999767},{""relative-x"":0.33203125,""relative-y"":0.4039351851851852,""elapse-time"":3786.3849999999948},{""relative-x"":0.2506510416666667,""relative-y"":0.2962962962962963,""elapse-time"":3816.9799999999377},{""relative-x"":0.263671875,""relative-y"":0.28935185185185186,""elapse-time"":3850.50999999998},{""relative-x"":0.3098958333333333,""relative-y"":0.3819444444444444,""elapse-time"":3884.6750000000175},{""relative-x"":0.3489583333333333,""relative-y"":0.4270833333333333,""elapse-time"":3918.2200000000157},{""relative-x"":0.3450520833333333,""relative-y"":0.41782407407407407,""elapse-time"":3955.185000000027},{""relative-x"":0.337890625,""relative-y"":0.4085648148148148,""elapse-time"":3989.0950000000157},{""relative-x"":0.3470052083333333,""relative-y"":0.39699074074074076,""elapse-time"":4014.78499999996},{""relative-x"":0.2975260416666667,""relative-y"":0.3090277777777778,""elapse-time"":4051.2949999999837},{""relative-x"":0.3352864583333333,""relative-y"":0.30092592592592593,""elapse-time"":4082.9400000000023},{""relative-x"":0.3430989583333333,""relative-y"":0.34375,""elapse-time"":4112.639999999941},{""relative-x"":0.388671875,""relative-y"":0.4224537037037037,""elapse-time"":4145.3000000000175},{""relative-x"":0.3522135416666667,""relative-y"":0.3645833333333333,""elapse-time"":4181.799999999945},{""relative-x"":0.35546875,""relative-y"":0.40162037037037035,""elapse-time"":4216.98000000004},{""relative-x"":0.388671875,""relative-y"":0.4583333333333333,""elapse-time"":4252.600000000035},{""relative-x"":0.31640625,""relative-y"":0.3726851851851852,""elapse-time"":4280.0700000000215},{""relative-x"":0.2890625,""relative-y"":0.33217592592592593,""elapse-time"":4315.569999999978},{""relative-x"":0.283203125,""relative-y"":0.3402777777777778,""elapse-time"":4347.575000000012},{""relative-x"":0.23111979166666666,""relative-y"":0.26157407407407407,""elapse-time"":4373.134999999937},{""relative-x"":0.2643229166666667,""relative-y"":0.2800925925925926,""elapse-time"":4391.074999999997},{""relative-x"":0.2421875,""relative-y"":0.24768518518518517,""elapse-time"":4411.114999999991},{""relative-x"":0.23111979166666666,""relative-y"":0.22106481481481483,""elapse-time"":4435.939999999959},{""relative-x"":0.2584635416666667,""relative-y"":0.23842592592592593,""elapse-time"":4476.809999999998},{""relative-x"":0.3190104166666667,""relative-y"":0.33912037037037035,""elapse-time"":4517.88499999998},{""relative-x"":0.2662760416666667,""relative-y"":0.2523148148148148,""elapse-time"":4548.604999999952},{""relative-x"":0.236328125,""relative-y"":0.22453703703703703,""elapse-time"":4578.589999999967},{""relative-x"":0.2265625,""relative-y"":0.21180555555555555,""elapse-time"":4604.854999999923},{""relative-x"":0.24674479166666666,""relative-y"":0.23726851851851852,""elapse-time"":4632.870000000024},{""relative-x"":0.2630208333333333,""relative-y"":0.27314814814814814,""elapse-time"":4652.624999999942},{""relative-x"":0.404296875,""relative-y"":0.4583333333333333,""elapse-time"":4680.515000000014},{""relative-x"":0.259765625,""relative-y"":0.22106481481481483,""elapse-time"":4712.309999999998},{""relative-x"":0.2740885416666667,""relative-y"":0.25,""elapse-time"":4756.349999999991},{""relative-x"":0.369140625,""relative-y"":0.35300925925925924,""elapse-time"":4790.245000000024},{""relative-x"":0.32421875,""relative-y"":0.31712962962962965,""elapse-time"":4817.829999999958},{""relative-x"":0.2682291666666667,""relative-y"":0.2708333333333333,""elapse-time"":4847.075000000012},{""relative-x"":0.24544270833333334,""relative-y"":0.2951388888888889,""elapse-time"":4878.685000000012},{""relative-x"":0.22591145833333334,""relative-y"":0.2361111111111111,""elapse-time"":4906.699999999997},{""relative-x"":0.3092447916666667,""relative-y"":0.37962962962962965,""elapse-time"":4967.779999999941},{""relative-x"":0.3645833333333333,""relative-y"":0.4826388888888889,""elapse-time"":5010.954999999958},{""relative-x"":0.34765625,""relative-y"":0.45949074074074076,""elapse-time"":5043.924999999945},{""relative-x"":0.24674479166666666,""relative-y"":0.23842592592592593,""elapse-time"":5072.699999999939},{""relative-x"":0.236328125,""relative-y"":0.21296296296296297,""elapse-time"":5101.899999999994},{""relative-x"":0.2845052083333333,""relative-y"":0.3090277777777778,""elapse-time"":5138.180000000037},{""relative-x"":0.1796875,""relative-y"":0.13541666666666666,""elapse-time"":5164.639999999956},{""relative-x"":0.23697916666666666,""relative-y"":0.24768518518518517,""elapse-time"":5199.600000000035},{""relative-x"":0.23046875,""relative-y"":0.22569444444444445,""elapse-time"":5225.400000000038},{""relative-x"":0.22005208333333334,""relative-y"":0.24421296296296297,""elapse-time"":5244.379999999976},{""relative-x"":0.3020833333333333,""relative-y"":0.34837962962962965,""elapse-time"":5261.859999999957},{""relative-x"":0.19856770833333334,""relative-y"":0.15162037037037038,""elapse-time"":5286.330000000016},{""relative-x"":0.22200520833333334,""relative-y"":0.2199074074074074,""elapse-time"":5306.640000000014},{""relative-x"":0.2701822916666667,""relative-y"":0.2488425925925926,""elapse-time"":5335.450000000041},{""relative-x"":0.23697916666666666,""relative-y"":0.2326388888888889,""elapse-time"":5365.274999999994},{""relative-x"":0.216796875,""relative-y"":0.22337962962962962,""elapse-time"":5394.144999999975},{""relative-x"":0.23307291666666666,""relative-y"":0.25810185185185186,""elapse-time"":5427.429999999964},{""relative-x"":0.2884114583333333,""relative-y"":0.33796296296296297,""elapse-time"":5458.869999999937},{""relative-x"":0.275390625,""relative-y"":0.3263888888888889,""elapse-time"":5492.8399999999965},{""relative-x"":0.2649739583333333,""relative-y"":0.2974537037037037,""elapse-time"":5520.354999999996},{""relative-x"":0.20638020833333334,""relative-y"":0.22337962962962962,""elapse-time"":5553.519999999931},{""relative-x"":0.21549479166666666,""relative-y"":0.16666666666666666,""elapse-time"":5586.670000000027},{""relative-x"":0.22200520833333334,""relative-y"":0.22916666666666666,""elapse-time"":5622.020000000019},{""relative-x"":0.23046875,""relative-y"":0.26967592592592593,""elapse-time"":5655.295000000027},{""relative-x"":0.2604166666666667,""relative-y"":0.2881944444444444,""elapse-time"":5686.289999999979},{""relative-x"":0.26953125,""relative-y"":0.29050925925925924,""elapse-time"":5719.839999999967},{""relative-x"":0.265625,""relative-y"":0.30439814814814814,""elapse-time"":5753.799999999959},{""relative-x"":0.14778645833333334,""relative-y"":0.15046296296296297,""elapse-time"":5791.749999999971},{""relative-x"":0.15169270833333334,""relative-y"":0.10532407407407407,""elapse-time"":5816.185000000012},{""relative-x"":0.22330729166666666,""relative-y"":0.21875,""elapse-time"":5856.499999999985},{""relative-x"":0.228515625,""relative-y"":0.22106481481481483,""elapse-time"":5887.870000000024},{""relative-x"":0.20703125,""relative-y"":0.1875,""elapse-time"":5919.094999999972},{""relative-x"":0.23828125,""relative-y"":0.23958333333333334,""elapse-time"":5953.0949999999575},{""relative-x"":0.22981770833333334,""relative-y"":0.2222222222222222,""elapse-time"":5984.244999999981},{""relative-x"":0.21158854166666666,""relative-y"":0.24768518518518517,""elapse-time"":6015.784999999931},{""relative-x"":0.24088541666666666,""relative-y"":0.2835648148148148,""elapse-time"":6049.689999999944},{""relative-x"":0.2532552083333333,""relative-y"":0.2847222222222222,""elapse-time"":6082.985000000001},{""relative-x"":0.189453125,""relative-y"":0.16666666666666666,""elapse-time"":6117.975000000006},{""relative-x"":0.21028645833333334,""relative-y"":0.1412037037037037,""elapse-time"":6154.130000000005},{""relative-x"":0.21875,""relative-y"":0.1701388888888889,""elapse-time"":6179.11000000003},{""relative-x"":0.2779947916666667,""relative-y"":0.3298611111111111,""elapse-time"":6217.170000000013},{""relative-x"":0.23893229166666666,""relative-y"":0.2534722222222222,""elapse-time"":6258.190000000017},{""relative-x"":0.23697916666666666,""relative-y"":0.23842592592592593,""elapse-time"":6288.609999999942},{""relative-x"":0.19205729166666666,""relative-y"":0.1840277777777778,""elapse-time"":6327.404999999999},{""relative-x"":0.18619791666666666,""relative-y"":0.16898148148148148,""elapse-time"":6363.129999999946},{""relative-x"":0.21484375,""relative-y"":0.21643518518518517,""elapse-time"":6401.639999999927},{""relative-x"":0.21940104166666666,""relative-y"":0.20949074074074073,""elapse-time"":6436.7300000000105},{""relative-x"":0.19270833333333334,""relative-y"":0.12731481481481483,""elapse-time"":6479.719999999928}]}","""","""","""","""","""","2021-01-13 18:57:42",,"Mozilla/5.0 (Windows NT 10.0; Win64; x64) AppleWebKit/537.36 (KHTML, like Gecko) Chrome/87.0.4280.141 Safari/537.36",WebKit,Chrome,87.0.4280.141,Windows,10.0
8,1,null,"""","""","""","""",html-keyboard-response,16,106684,0.0-12.0-2.0-0.1,261,1,1,"HD User Facing (04f2:b64f)",23755d03b40c84a69486d46887b9e08057f9a365646dd46e177d47ea48c22381,30,0.001388888888888889,720,1280,$4.5,"90 days","""",null,"""","""","""","""","""","""","""","""","""","""","""","2021-01-13 18:57:42",,"Mozilla/5.0 (Windows NT 10.0; Win64; x64) AppleWebKit/537.36 (KHTML, like Gecko) Chrome/87.0.4280.141 Safari/537.36",WebKit,Chrome,87.0.4280.141,Windows,10.0
8,1,"""","""","""",1536,864,eyetracking-calibration,17,113303,0.0-12.0-2.0-1.1,261,1,1,"HD User Facing (04f2:b64f)",23755d03b40c84a69486d46887b9e08057f9a365646dd46e177d47ea48c22381,30,0.001388888888888889,720,1280,$4.5,"90 days","""","""","""",0.65,0.65,1,0,"{""history"":[{""relative-x"":0.3138020833333333,""relative-y"":0.3298611111111111,""elapse-time"":49.95999999993364},{""relative-x"":0.3098958333333333,""relative-y"":0.3125,""elapse-time"":83.19499999991967},{""relative-x"":0.3248697916666667,""relative-y"":0.30671296296296297,""elapse-time"":117.5049999999319},{""relative-x"":0.341796875,""relative-y"":0.35532407407407407,""elapse-time"":148.49000000003434},{""relative-x"":0.330078125,""relative-y"":0.33912037037037035,""elapse-time"":169.7950000000128},{""relative-x"":0.3352864583333333,""relative-y"":0.3680555555555556,""elapse-time"":189.7350000000297},{""relative-x"":0.24934895833333334,""relative-y"":0.21875,""elapse-time"":207.86499999996158},{""relative-x"":0.2591145833333333,""relative-y"":0.24189814814814814,""elapse-time"":228.69000000001688},{""relative-x"":0.2799479166666667,""relative-y"":0.26273148148148145,""elapse-time"":284.3950000000186},{""relative-x"":0.294921875,""relative-y"":0.3425925925925926,""elapse-time"":323.40999999995984},{""relative-x"":0.3033854166666667,""relative-y"":0.3611111111111111,""elapse-time"":356.324999999968},{""relative-x"":0.3990885416666667,""relative-y"":0.4131944444444444,""elapse-time"":394.95499999997264},{""relative-x"":0.4309895833333333,""relative-y"":0.4513888888888889,""elapse-time"":430.0899999999383},{""relative-x"":0.4811197916666667,""relative-y"":0.5902777777777778,""elapse-time"":469.2049999999872},{""relative-x"":0.5143229166666666,""relative-y"":0.6574074074074074,""elapse-time"":500.7799999999552},{""relative-x"":0.5305989583333334,""relative-y"":0.5324074074074074,""elapse-time"":541.5950000000303},{""relative-x"":0.5305989583333334,""relative-y"":0.5324074074074074,""elapse-time"":574.8549999999523},{""relative-x"":0.609375,""relative-y"":0.625,""elapse-time"":612.6799999999494},{""relative-x"":0.6295572916666666,""relative-y"":0.6689814814814815,""elapse-time"":647.6800000000367},{""relative-x"":0.5670572916666666,""relative-y"":0.5914351851851852,""elapse-time"":677.4000000000233},{""relative-x"":0.5670572916666666,""relative-y"":0.5914351851851852,""elapse-time"":720.4699999999721},{""relative-x"":0.6399739583333334,""relative-y"":0.6701388888888888,""elapse-time"":757.9299999999785},{""relative-x"":0.5735677083333334,""relative-y"":0.5729166666666666,""elapse-time"":789.0350000000035},{""relative-x"":0.6256510416666666,""relative-y"":0.6076388888888888,""elapse-time"":824.8700000000244},{""relative-x"":0.5944010416666666,""relative-y"":0.5798611111111112,""elapse-time"":859.6099999999715},{""relative-x"":0.62109375,""relative-y"":0.6458333333333334,""elapse-time"":899.204999999929},{""relative-x"":0.6536458333333334,""relative-y"":0.6585648148148148,""elapse-time"":931.5349999999307},{""relative-x"":0.6171875,""relative-y"":0.6053240740740741,""elapse-time"":969.2800000000279},{""relative-x"":0.6555989583333334,""relative-y"":0.6817129629629629,""elapse-time"":1013.9900000000343},{""relative-x"":0.6412760416666666,""relative-y"":0.6307870370370371,""elapse-time"":1046.3499999999622},{""relative-x"":0.6328125,""relative-y"":0.6342592592592593,""elapse-time"":1089.3350000000064},{""relative-x"":0.6380208333333334,""relative-y"":0.6597222222222222,""elapse-time"":1121.7299999999523},{""relative-x"":0.658203125,""relative-y"":0.7233796296296297,""elapse-time"":1162.3049999999348},{""relative-x"":0.6080729166666666,""relative-y"":0.7106481481481481,""elapse-time"":1197.3550000000105},{""relative-x"":0.6223958333333334,""relative-y"":0.6539351851851852,""elapse-time"":1234.9199999999837},{""relative-x"":0.6243489583333334,""relative-y"":0.6736111111111112,""elapse-time"":1276.0550000000367},{""relative-x"":0.6484375,""relative-y"":0.6817129629629629,""elapse-time"":1313.62999999999},{""relative-x"":0.611328125,""relative-y"":0.6342592592592593,""elapse-time"":1338.5100000000384},{""relative-x"":0.6575520833333334,""relative-y"":0.6793981481481481,""elapse-time"":1367.2249999999622},{""relative-x"":0.6608072916666666,""relative-y"":0.6828703703703703,""elapse-time"":1394.7200000000012},{""relative-x"":0.6595052083333334,""relative-y"":0.6782407407407407,""elapse-time"":1428.715000000011},{""relative-x"":0.5787760416666666,""relative-y"":0.5925925925925926,""elapse-time"":1463.1699999999837},{""relative-x"":0.5462239583333334,""relative-y"":0.5532407407407407,""elapse-time"":1495.9599999999627},{""relative-x"":0.5533854166666666,""relative-y"":0.5613425925925926,""elapse-time"":1521.2400000000343},{""relative-x"":0.564453125,""relative-y"":0.5995370370370371,""elapse-time"":1554.8149999999587},{""relative-x"":0.4485677083333333,""relative-y"":0.4305555555555556,""elapse-time"":1590.4749999999622},{""relative-x"":0.4889322916666667,""relative-y"":0.48032407407407407,""elapse-time"":1627.1900000000314},{""relative-x"":0.4934895833333333,""relative-y"":0.5011574074074074,""elapse-time"":1654.059999999954},{""relative-x"":0.5625,""relative-y"":0.5590277777777778,""elapse-time"":1687.5850000000064},{""relative-x"":0.53125,""relative-y"":0.5208333333333334,""elapse-time"":1717.41499999995},{""relative-x"":0.5638020833333334,""relative-y"":0.5648148148148148,""elapse-time"":1750.6600000000326},{""relative-x"":0.5416666666666666,""relative-y"":0.5347222222222222,""elapse-time"":1782.6800000000221},{""relative-x"":0.5143229166666666,""relative-y"":0.5081018518518519,""elapse-time"":1815.9249999999884},{""relative-x"":0.4889322916666667,""relative-y"":0.4525462962962963,""elapse-time"":1851.980000000025},{""relative-x"":0.4720052083333333,""relative-y"":0.44675925925925924,""elapse-time"":1888.8399999999529},{""relative-x"":0.4928385416666667,""relative-y"":0.48842592592592593,""elapse-time"":1924.2199999999866},{""relative-x"":0.5904947916666666,""relative-y"":0.6354166666666666,""elapse-time"":1955.1800000000367},{""relative-x"":0.583984375,""relative-y"":0.625,""elapse-time"":1982.1899999999441},{""relative-x"":0.5638020833333334,""relative-y"":0.5833333333333334,""elapse-time"":2016.4750000000058},{""relative-x"":0.5481770833333334,""relative-y"":0.5648148148148148,""elapse-time"":2049.8549999999814},{""relative-x"":0.5690104166666666,""relative-y"":0.5960648148148148,""elapse-time"":2087.930000000022},{""relative-x"":0.5768229166666666,""relative-y"":0.6238425925925926,""elapse-time"":2123.9899999999325},{""relative-x"":0.5279947916666666,""relative-y"":0.5717592592592593,""elapse-time"":2162.024999999965},{""relative-x"":0.5071614583333334,""relative-y"":0.5150462962962963,""elapse-time"":2188.745000000039},{""relative-x"":0.6529947916666666,""relative-y"":0.6527777777777778,""elapse-time"":2243.299999999974},{""relative-x"":0.74609375,""relative-y"":0.78125,""elapse-time"":2279.1650000000227},{""relative-x"":0.625,""relative-y"":0.6087962962962963,""elapse-time"":2309.639999999941},{""relative-x"":0.4134114583333333,""relative-y"":0.4548611111111111,""elapse-time"":2338.894999999975},{""relative-x"":0.19010416666666666,""relative-y"":0.20833333333333334,""elapse-time"":2359.9550000000017},{""relative-x"":0.3444010416666667,""relative-y"":0.375,""elapse-time"":2381.0099999999366},{""relative-x"":0.2421875,""relative-y"":0.2638888888888889,""elapse-time"":2398.6649999999354},{""relative-x"":0.3151041666666667,""relative-y"":0.3229166666666667,""elapse-time"":2418.8850000000384},{""relative-x"":0.2916666666666667,""relative-y"":0.33796296296296297,""elapse-time"":2442.0449999999983},{""relative-x"":0.7174479166666666,""relative-y"":0.7280092592592593,""elapse-time"":2468.664999999979},{""relative-x"":0.7174479166666666,""relative-y"":0.7280092592592593,""elapse-time"":2501.835000000021},{""relative-x"":0.716796875,""relative-y"":0.7106481481481481,""elapse-time"":2534.769999999975},{""relative-x"":0.609375,""relative-y"":0.65625,""elapse-time"":2564.200000000026},{""relative-x"":0.6770833333333334,""relative-y"":0.7048611111111112,""elapse-time"":2598.124999999971},{""relative-x"":0.6940104166666666,""relative-y"":0.7164351851851852,""elapse-time"":2631.079999999987},{""relative-x"":0.6829427083333334,""relative-y"":0.6909722222222222,""elapse-time"":2665.4300000000076},{""relative-x"":0.6640625,""relative-y"":0.6770833333333334,""elapse-time"":2693.719999999972},{""relative-x"":0.638671875,""relative-y"":0.7256944444444444,""elapse-time"":2729.635000000024},{""relative-x"":0.6373697916666666,""relative-y"":0.6956018518518519,""elapse-time"":2763.6449999999895},{""relative-x"":0.619140625,""relative-y"":0.6493055555555556,""elapse-time"":2798.409999999989},{""relative-x"":0.625,""relative-y"":0.6493055555555556,""elapse-time"":2833.4049999999697},{""relative-x"":0.6595052083333334,""relative-y"":0.7025462962962963,""elapse-time"":2870.3649999999907},{""relative-x"":0.6380208333333334,""relative-y"":0.6817129629629629,""elapse-time"":2893.630000000019},{""relative-x"":0.6477864583333334,""relative-y"":0.7291666666666666,""elapse-time"":2917.9699999999575},{""relative-x"":0.7376302083333334,""relative-y"":0.7430555555555556,""elapse-time"":2948.0949999999575},{""relative-x"":0.6588541666666666,""relative-y"":0.6504629629629629,""elapse-time"":2978.6000000000204},{""relative-x"":0.6875,""relative-y"":0.6747685185185185,""elapse-time"":3004.5599999999686},{""relative-x"":0.677734375,""relative-y"":0.6898148148148148,""elapse-time"":3045.504999999932},{""relative-x"":0.6569010416666666,""relative-y"":0.6574074074074074,""elapse-time"":3079.6299999999464},{""relative-x"":0.6458333333333334,""relative-y"":0.6354166666666666,""elapse-time"":3099.4399999999587},{""relative-x"":0.6536458333333334,""relative-y"":0.6527777777777778,""elapse-time"":3117.889999999985},{""relative-x"":0.6653645833333334,""relative-y"":0.6770833333333334,""elapse-time"":3139.9900000000052},{""relative-x"":0.6608072916666666,""relative-y"":0.6643518518518519,""elapse-time"":3159.7149999999965},{""relative-x"":0.6608072916666666,""relative-y"":0.6643518518518519,""elapse-time"":3180.25},{""relative-x"":0.6829427083333334,""relative-y"":0.6817129629629629,""elapse-time"":3207.3850000000384},{""relative-x"":0.666015625,""relative-y"":0.6875,""elapse-time"":3233.719999999943},{""relative-x"":0.666015625,""relative-y"":0.6875,""elapse-time"":3261.5449999999546},{""relative-x"":0.6399739583333334,""relative-y"":0.6851851851851852,""elapse-time"":3291.834999999992},{""relative-x"":0.6569010416666666,""relative-y"":0.7175925925925926,""elapse-time"":3325.7199999999284},{""relative-x"":0.6881510416666666,""relative-y"":0.7326388888888888,""elapse-time"":3362.819999999934},{""relative-x"":0.6647135416666666,""relative-y"":0.6932870370370371,""elapse-time"":3386.174999999974},{""relative-x"":0.6764322916666666,""relative-y"":0.7071759259259259,""elapse-time"":3408.29999999993},{""relative-x"":0.62890625,""relative-y"":0.6539351851851852,""elapse-time"":3438.7299999999523},{""relative-x"":0.59375,""relative-y"":0.5810185185185185,""elapse-time"":3473.510000000024},{""relative-x"":0.5774739583333334,""relative-y"":0.5775462962962963,""elapse-time"":3493.1649999999645},{""relative-x"":0.6165364583333334,""relative-y"":0.5914351851851852,""elapse-time"":3512.079999999958},{""relative-x"":0.6979166666666666,""relative-y"":0.6898148148148148,""elapse-time"":3541.2599999999657},{""relative-x"":0.6529947916666666,""relative-y"":0.6701388888888888,""elapse-time"":3572.3150000000023},{""relative-x"":0.6529947916666666,""relative-y"":0.6701388888888888,""elapse-time"":3602.2249999999767},{""relative-x"":0.6243489583333334,""relative-y"":0.6215277777777778,""elapse-time"":3632.695000000007},{""relative-x"":0.6653645833333334,""relative-y"":0.6747685185185185,""elapse-time"":3655.4949999999662},{""relative-x"":0.7467447916666666,""relative-y"":0.7326388888888888,""elapse-time"":3687.0549999999785},{""relative-x"":0.6783854166666666,""relative-y"":0.6689814814814815,""elapse-time"":3721.5649999999296},{""relative-x"":0.7532552083333334,""relative-y"":0.7581018518518519,""elapse-time"":3758.7449999999662},{""relative-x"":0.7311197916666666,""relative-y"":0.7245370370370371,""elapse-time"":3790.1249999999854},{""relative-x"":0.6666666666666666,""relative-y"":0.6516203703703703,""elapse-time"":3822.814999999988},{""relative-x"":0.7057291666666666,""relative-y"":0.7013888888888888,""elapse-time"":3853.965000000011},{""relative-x"":0.654296875,""relative-y"":0.6608796296296297,""elapse-time"":3885.4499999999825},{""relative-x"":0.6627604166666666,""relative-y"":0.7037037037037037,""elapse-time"":3939.7149999999674},{""relative-x"":0.6477864583333334,""relative-y"":0.6585648148148148,""elapse-time"":3978.820000000036},{""relative-x"":0.6627604166666666,""relative-y"":0.6712962962962963,""elapse-time"":4015.9199999999255},{""relative-x"":0.59765625,""relative-y"":0.6064814814814815,""elapse-time"":4050.2999999999884},{""relative-x"":0.671875,""relative-y"":0.6898148148148148,""elapse-time"":4083.610000000015},{""relative-x"":0.6204427083333334,""relative-y"":0.6504629629629629,""elapse-time"":4117.54499999994},{""relative-x"":0.5520833333333334,""relative-y"":0.5775462962962963,""elapse-time"":4146.385000000009},{""relative-x"":0.3444010416666667,""relative-y"":0.36226851851851855,""elapse-time"":4165.209999999992},{""relative-x"":0.357421875,""relative-y"":0.3425925925925926,""elapse-time"":4184.6950000000215},{""relative-x"":0.5885416666666666,""relative-y"":0.5960648148148148,""elapse-time"":4203.624999999985},{""relative-x"":0.5598958333333334,""relative-y"":0.5625,""elapse-time"":4227.309999999983},{""relative-x"":0.5110677083333334,""relative-y"":0.5254629629629629,""elapse-time"":4254.22500000002},{""relative-x"":0.6647135416666666,""relative-y"":0.6875,""elapse-time"":4277.749999999971},{""relative-x"":0.7298177083333334,""relative-y"":0.7430555555555556,""elapse-time"":4310.960000000021},{""relative-x"":0.71875,""relative-y"":0.7696759259259259,""elapse-time"":4343.4549999999435},{""relative-x"":0.6875,""relative-y"":0.7106481481481481,""elapse-time"":4361.62999999999},{""relative-x"":0.6236979166666666,""relative-y"":0.6342592592592593,""elapse-time"":4383.64999999998},{""relative-x"":0.6516927083333334,""relative-y"":0.6747685185185185,""elapse-time"":4409.419999999955},{""relative-x"":0.6360677083333334,""relative-y"":0.6504629629629629,""elapse-time"":4426.209999999963},{""relative-x"":0.6360677083333334,""relative-y"":0.6504629629629629,""elapse-time"":4449.54499999994},{""relative-x"":0.6243489583333334,""relative-y"":0.6377314814814815,""elapse-time"":4482.039999999979},{""relative-x"":0.6927083333333334,""relative-y"":0.7546296296296297,""elapse-time"":4514.315000000002},{""relative-x"":0.73828125,""relative-y"":0.7592592592592593,""elapse-time"":4548.0899999999965},{""relative-x"":0.603515625,""relative-y"":0.5856481481481481,""elapse-time"":4578.144999999946},{""relative-x"":0.6321614583333334,""relative-y"":0.6747685185185185,""elapse-time"":4607.11500000002},{""relative-x"":0.630859375,""relative-y"":0.6550925925925926,""elapse-time"":4625.62999999999},{""relative-x"":0.7044270833333334,""relative-y"":0.7164351851851852,""elapse-time"":4650.440000000002},{""relative-x"":0.64453125,""relative-y"":0.6817129629629629,""elapse-time"":4684.300000000003},{""relative-x"":0.6634114583333334,""relative-y"":0.7094907407407407,""elapse-time"":4716.620000000024},{""relative-x"":0.6608072916666666,""relative-y"":0.6886574074074074,""elapse-time"":4747.319999999934},{""relative-x"":0.6484375,""relative-y"":0.6412037037037037,""elapse-time"":4789.324999999953},{""relative-x"":0.509765625,""relative-y"":0.5439814814814815,""elapse-time"":4828.049999999959},{""relative-x"":0.22526041666666666,""relative-y"":0.21180555555555555,""elapse-time"":4863.5199999999895},{""relative-x"":0.203125,""relative-y"":0.23726851851851852,""elapse-time"":4896.835000000006},{""relative-x"":0.5182291666666666,""relative-y"":0.5069444444444444,""elapse-time"":4935.04999999993},{""relative-x"":0.365234375,""relative-y"":0.4039351851851852,""elapse-time"":4968.854999999952},{""relative-x"":0.3678385416666667,""relative-y"":0.4027777777777778,""elapse-time"":4989.624999999927},{""relative-x"":0.2740885416666667,""relative-y"":0.3020833333333333,""elapse-time"":5012.204999999987},{""relative-x"":0.24283854166666666,""relative-y"":0.2708333333333333,""elapse-time"":5032.014999999999},{""relative-x"":0.22526041666666666,""relative-y"":0.19444444444444445,""elapse-time"":5049.934999999998},{""relative-x"":0.12630208333333334,""relative-y"":0.12037037037037036,""elapse-time"":5068.639999999956},{""relative-x"":0.19010416666666666,""relative-y"":0.19444444444444445,""elapse-time"":5087.109999999928},{""relative-x"":0.125,""relative-y"":0.1087962962962963,""elapse-time"":5112.245000000024},{""relative-x"":0.265625,""relative-y"":0.2743055555555556,""elapse-time"":5140.61000000003},{""relative-x"":0.11067708333333333,""relative-y"":0.06944444444444445,""elapse-time"":5171.704999999973},{""relative-x"":0.5826822916666666,""relative-y"":0.5474537037037037,""elapse-time"":5203.11000000003},{""relative-x"":0.548828125,""relative-y"":0.4988425925925926,""elapse-time"":5236.279999999955},{""relative-x"":0.6204427083333334,""relative-y"":0.5821759259259259,""elapse-time"":5267.439999999959},{""relative-x"":0.7037760416666666,""relative-y"":0.6620370370370371,""elapse-time"":5300.354999999967},{""relative-x"":0.8307291666666666,""relative-y"":0.7870370370370371,""elapse-time"":5331.080000000031},{""relative-x"":0.7779947916666666,""relative-y"":0.7326388888888888,""elapse-time"":5364.000000000029},{""relative-x"":0.650390625,""relative-y"":0.6863425925925926,""elapse-time"":5396.079999999973},{""relative-x"":0.5052083333333334,""relative-y"":0.5393518518518519,""elapse-time"":5429.079999999987},{""relative-x"":0.7454427083333334,""relative-y"":0.7488425925925926,""elapse-time"":5466.659999999931},{""relative-x"":0.7356770833333334,""relative-y"":0.7453703703703703,""elapse-time"":5501.634999999966},{""relative-x"":0.7337239583333334,""relative-y"":0.7800925925925926,""elapse-time"":5535.894999999975},{""relative-x"":0.7721354166666666,""relative-y"":0.7881944444444444,""elapse-time"":5576.180000000022},{""relative-x"":0.6165364583333334,""relative-y"":0.6724537037037037,""elapse-time"":5610.1750000000175},{""relative-x"":0.662109375,""relative-y"":0.7361111111111112,""elapse-time"":5649.125000000015},{""relative-x"":0.7291666666666666,""relative-y"":0.7604166666666666,""elapse-time"":5684.709999999992},{""relative-x"":0.7174479166666666,""relative-y"":0.7511574074074074,""elapse-time"":5707.90499999997},{""relative-x"":0.8157552083333334,""relative-y"":0.8333333333333334,""elapse-time"":5725.815000000002},{""relative-x"":0.7604166666666666,""relative-y"":0.7777777777777778,""elapse-time"":5754.405000000013},{""relative-x"":0.6809895833333334,""relative-y"":0.7071759259259259,""elapse-time"":5788.530000000028},{""relative-x"":0.6731770833333334,""relative-y"":0.6782407407407407,""elapse-time"":5824.070000000007},{""relative-x"":0.673828125,""relative-y"":0.6678240740740741,""elapse-time"":5850.379999999961},{""relative-x"":0.79296875,""relative-y"":0.8078703703703703,""elapse-time"":5883.824999999997},{""relative-x"":0.7083333333333334,""relative-y"":0.7048611111111112,""elapse-time"":5916.224999999933},{""relative-x"":0.625,""relative-y"":0.6122685185185185,""elapse-time"":5953.184999999954},{""relative-x"":0.560546875,""relative-y"":0.5983796296296297,""elapse-time"":5987.9849999999715},{""relative-x"":0.6158854166666666,""relative-y"":0.5914351851851852,""elapse-time"":6023.585000000021},{""relative-x"":0.5807291666666666,""relative-y"":0.6018518518518519,""elapse-time"":6055.769999999931},{""relative-x"":0.5787760416666666,""relative-y"":0.5625,""elapse-time"":6084.259999999966},{""relative-x"":0.6647135416666666,""relative-y"":0.6909722222222222,""elapse-time"":6119.064999999973},{""relative-x"":0.6510416666666666,""relative-y"":0.6435185185185185,""elapse-time"":6155.125},{""relative-x"":0.6067708333333334,""relative-y"":0.5763888888888888,""elapse-time"":6187.395000000033},{""relative-x"":0.708984375,""relative-y"":0.7210648148148148,""elapse-time"":6225.069999999949},{""relative-x"":0.5787760416666666,""relative-y"":0.6053240740740741,""elapse-time"":6260.509999999951},{""relative-x"":0.6009114583333334,""relative-y"":0.6273148148148148,""elapse-time"":6288.940000000017},{""relative-x"":0.5598958333333334,""relative-y"":0.5625,""elapse-time"":6329.145000000033},{""relative-x"":0.68359375,""relative-y"":0.6770833333333334,""elapse-time"":6361.199999999939},{""relative-x"":0.6484375,""relative-y"":0.65625,""elapse-time"":6381.520000000019},{""relative-x"":0.6555989583333334,""relative-y"":0.65625,""elapse-time"":6404.2100000000355},{""relative-x"":0.5748697916666666,""relative-y"":0.5810185185185185,""elapse-time"":6436.860000000015},{""relative-x"":0.7122395833333334,""relative-y"":0.7071759259259259,""elapse-time"":6466.839999999924},{""relative-x"":0.7194010416666666,""relative-y"":0.7175925925925926,""elapse-time"":6496.3599999999715},{""relative-x"":0.6725260416666666,""relative-y"":0.6701388888888888,""elapse-time"":6533.544999999998},{""relative-x"":0.4446614583333333,""relative-y"":0.5011574074074074,""elapse-time"":6565.86500000002},{""relative-x"":0.3821614583333333,""relative-y"":0.38310185185185186,""elapse-time"":6600.919999999969}]}","""","""","""","""","""","2021-01-13 18:57:42",,"Mozilla/5.0 (Windows NT 10.0; Win64; x64) AppleWebKit/537.36 (KHTML, like Gecko) Chrome/87.0.4280.141 Safari/537.36",WebKit,Chrome,87.0.4280.141,Windows,10.0
8,1,null,"""","""","""","""",html-keyboard-response,18,114809,0.0-12.0-2.0-0.2,261,1,1,"HD User Facing (04f2:b64f)",23755d03b40c84a69486d46887b9e08057f9a365646dd46e177d47ea48c22381,30,0.001388888888888889,720,1280,$4.5,"90 days","""",null,"""","""","""","""","""","""","""","""","""","""","""","2021-01-13 18:57:42",,"Mozilla/5.0 (Windows NT 10.0; Win64; x64) AppleWebKit/537.36 (KHTML, like Gecko) Chrome/87.0.4280.141 Safari/537.36",WebKit,Chrome,87.0.4280.141,Windows,10.0
8,1,"""","""","""",1536,864,eyetracking-calibration,19,119142,0.0-12.0-2.0-1.2,261,1,1,"HD User Facing (04f2:b64f)",23755d03b40c84a69486d46887b9e08057f9a365646dd46e177d47ea48c22381,30,0.001388888888888889,720,1280,$4.5,"90 days","""","""","""",0.8,0.5,1,0,"{""history"":[{""relative-x"":0.5338541666666666,""relative-y"":0.5034722222222222,""elapse-time"":62.84999999990396},{""relative-x"":0.5546875,""relative-y"":0.5555555555555556,""elapse-time"":98.11500000000524},{""relative-x"":0.595703125,""relative-y"":0.65625,""elapse-time"":133.56499999997322},{""relative-x"":0.583984375,""relative-y"":0.6643518518518519,""elapse-time"":166.6449999999022},{""relative-x"":0.5826822916666666,""relative-y"":0.6631944444444444,""elapse-time"":200.90499999991152},{""relative-x"":0.541015625,""relative-y"":0.6018518518518519,""elapse-time"":230.78499999995984},{""relative-x"":0.67578125,""relative-y"":0.7222222222222222,""elapse-time"":250.6700000000128},{""relative-x"":0.67578125,""relative-y"":0.7222222222222222,""elapse-time"":274.3949999999022},{""relative-x"":0.7174479166666666,""relative-y"":0.7453703703703703,""elapse-time"":304.4850000000006},{""relative-x"":0.611328125,""relative-y"":0.6631944444444444,""elapse-time"":338.66999999996915},{""relative-x"":0.697265625,""relative-y"":0.7083333333333334,""elapse-time"":380.3299999999581},{""relative-x"":0.7786458333333334,""relative-y"":0.78125,""elapse-time"":415.45999999993364},{""relative-x"":0.7682291666666666,""relative-y"":0.6944444444444444,""elapse-time"":451.0500000000029},{""relative-x"":0.7578125,""relative-y"":0.6828703703703703,""elapse-time"":477.004999999961},{""relative-x"":0.80859375,""relative-y"":0.6863425925925926,""elapse-time"":508.5649999999732},{""relative-x"":0.7623697916666666,""relative-y"":0.6712962962962963,""elapse-time"":538.4299999999494},{""relative-x"":0.716796875,""relative-y"":0.6076388888888888,""elapse-time"":574.809999999954},{""relative-x"":0.720703125,""relative-y"":0.6134259259259259,""elapse-time"":607.1699999999837},{""relative-x"":0.76953125,""relative-y"":0.6435185185185185,""elapse-time"":642.195000000007},{""relative-x"":0.8190104166666666,""relative-y"":0.6087962962962963,""elapse-time"":685.3499999999622},{""relative-x"":0.8157552083333334,""relative-y"":0.5949074074074074,""elapse-time"":720.9050000000134},{""relative-x"":0.7552083333333334,""relative-y"":0.5254629629629629,""elapse-time"":761.8149999999441},{""relative-x"":0.7981770833333334,""relative-y"":0.5358796296296297,""elapse-time"":788.1599999999453},{""relative-x"":0.80859375,""relative-y"":0.5868055555555556,""elapse-time"":823.9649999999237},{""relative-x"":0.7578125,""relative-y"":0.5451388888888888,""elapse-time"":856.7499999999127},{""relative-x"":0.7845052083333334,""relative-y"":0.5289351851851852,""elapse-time"":924.3599999999715},{""relative-x"":0.9029947916666666,""relative-y"":0.6712962962962963,""elapse-time"":973.5699999999924},{""relative-x"":0.8795572916666666,""relative-y"":0.7407407407407407,""elapse-time"":1006.2399999999325},{""relative-x"":0.88671875,""relative-y"":0.6828703703703703,""elapse-time"":1038.4199999999691},{""relative-x"":0.849609375,""relative-y"":0.6550925925925926,""elapse-time"":1063.6599999999016},{""relative-x"":0.8782552083333334,""relative-y"":0.6736111111111112,""elapse-time"":1084.459999999919},{""relative-x"":0.8151041666666666,""relative-y"":0.5300925925925926,""elapse-time"":1109.9749999999622},{""relative-x"":0.865234375,""relative-y"":0.6122685185185185,""elapse-time"":1130.509999999951},{""relative-x"":0.83984375,""relative-y"":0.6574074074074074,""elapse-time"":1158.709999999919},{""relative-x"":0.82421875,""relative-y"":0.6319444444444444,""elapse-time"":1188.91999999994},{""relative-x"":0.806640625,""relative-y"":0.5972222222222222,""elapse-time"":1221.6949999999488},{""relative-x"":0.8040364583333334,""relative-y"":0.5856481481481481,""elapse-time"":1243.0049999999173},{""relative-x"":0.8040364583333334,""relative-y"":0.5856481481481481,""elapse-time"":1263.6299999999173},{""relative-x"":0.81640625,""relative-y"":0.6886574074074074,""elapse-time"":1293.4449999999051},{""relative-x"":0.81640625,""relative-y"":0.6886574074074074,""elapse-time"":1319.4099999999453},{""relative-x"":0.7955729166666666,""relative-y"":0.6284722222222222,""elapse-time"":1351.5749999999098},{""relative-x"":0.724609375,""relative-y"":0.6041666666666666,""elapse-time"":1388.5299999999406},{""relative-x"":0.7740885416666666,""relative-y"":0.625,""elapse-time"":1428.4099999999744},{""relative-x"":0.7278645833333334,""relative-y"":0.6724537037037037,""elapse-time"":1461.8799999999464},{""relative-x"":0.7447916666666666,""relative-y"":0.5902777777777778,""elapse-time"":1481.4349999999104},{""relative-x"":0.7721354166666666,""relative-y"":0.6979166666666666,""elapse-time"":1507.8949999999604},{""relative-x"":0.7819010416666666,""relative-y"":0.5509259259259259,""elapse-time"":1539.1849999999686},{""relative-x"":0.775390625,""relative-y"":0.5393518518518519,""elapse-time"":1576.7049999999435},{""relative-x"":0.7825520833333334,""relative-y"":0.5949074074074074,""elapse-time"":1612.6199999999808},{""relative-x"":0.7630208333333334,""relative-y"":0.6307870370370371,""elapse-time"":1650.0599999999395},{""relative-x"":0.8092447916666666,""relative-y"":0.6886574074074074,""elapse-time"":1687.259999999922},{""relative-x"":0.712890625,""relative-y"":0.5949074074074074,""elapse-time"":1715.7699999999022},{""relative-x"":0.814453125,""relative-y"":0.5300925925925926,""elapse-time"":1745.1849999999831},{""relative-x"":0.859375,""relative-y"":0.5902777777777778,""elapse-time"":1768.4749999999622},{""relative-x"":0.8684895833333334,""relative-y"":0.6481481481481481,""elapse-time"":1800.7849999999016},{""relative-x"":0.8841145833333334,""relative-y"":0.6516203703703703,""elapse-time"":1834.864999999918},{""relative-x"":0.8470052083333334,""relative-y"":0.6469907407407407,""elapse-time"":1865.4749999999476},{""relative-x"":0.8268229166666666,""relative-y"":0.6018518518518519,""elapse-time"":1886.239999999918},{""relative-x"":0.8268229166666666,""relative-y"":0.6018518518518519,""elapse-time"":1913.9249999999447},{""relative-x"":0.8626302083333334,""relative-y"":0.5960648148148148,""elapse-time"":1946.0950000000012},{""relative-x"":0.830078125,""relative-y"":0.5300925925925926,""elapse-time"":1975.344999999943},{""relative-x"":0.6204427083333334,""relative-y"":0.4548611111111111,""elapse-time"":2005.6099999999278},{""relative-x"":0.5618489583333334,""relative-y"":0.5914351851851852,""elapse-time"":2040.1699999999837},{""relative-x"":0.61328125,""relative-y"":0.6342592592592593,""elapse-time"":2075.2949999999837},{""relative-x"":0.6458333333333334,""relative-y"":0.5289351851851852,""elapse-time"":2097.0999999999476},{""relative-x"":0.7884114583333334,""relative-y"":0.6886574074074074,""elapse-time"":2133.2999999999593},{""relative-x"":0.7161458333333334,""relative-y"":0.6678240740740741,""elapse-time"":2165.25499999999},{""relative-x"":0.791015625,""relative-y"":0.6064814814814815,""elapse-time"":2193.4899999999907},{""relative-x"":0.669921875,""relative-y"":0.7534722222222222,""elapse-time"":2225.0349999999307},{""relative-x"":0.7180989583333334,""relative-y"":0.6342592592592593,""elapse-time"":2259.7200000000157},{""relative-x"":0.64453125,""relative-y"":0.5949074074074074,""elapse-time"":2293.1999999999534},{""relative-x"":0.6165364583333334,""relative-y"":0.5856481481481481,""elapse-time"":2330.0899999999237},{""relative-x"":0.7096354166666666,""relative-y"":0.6469907407407407,""elapse-time"":2367.079999999987},{""relative-x"":0.732421875,""relative-y"":0.7268518518518519,""elapse-time"":2392.7099999999627},{""relative-x"":0.8229166666666666,""relative-y"":0.6122685185185185,""elapse-time"":2420.9849999999715},{""relative-x"":0.8098958333333334,""relative-y"":0.6377314814814815,""elapse-time"":2445.3149999999296},{""relative-x"":0.763671875,""relative-y"":0.6481481481481481,""elapse-time"":2483.154999999999},{""relative-x"":0.80078125,""relative-y"":0.6631944444444444,""elapse-time"":2520.6099999999133},{""relative-x"":0.724609375,""relative-y"":0.6550925925925926,""elapse-time"":2545.6399999999267},{""relative-x"":0.7884114583333334,""relative-y"":0.6851851851851852,""elapse-time"":2565.6599999999744},{""relative-x"":0.78125,""relative-y"":0.6053240740740741,""elapse-time"":2585.3399999999674},{""relative-x"":0.78125,""relative-y"":0.6053240740740741,""elapse-time"":2605.6999999999534},{""relative-x"":0.8541666666666666,""relative-y"":0.6261574074074074,""elapse-time"":2632.7899999999936},{""relative-x"":0.7916666666666666,""relative-y"":0.6157407407407407,""elapse-time"":2669.5099999999366},{""relative-x"":0.802734375,""relative-y"":0.6666666666666666,""elapse-time"":2698.7550000000047},{""relative-x"":0.6640625,""relative-y"":0.6099537037037037,""elapse-time"":2719.735000000015},{""relative-x"":0.7076822916666666,""relative-y"":0.5763888888888888,""elapse-time"":2742.0499999999447},{""relative-x"":0.6901041666666666,""relative-y"":0.6192129629629629,""elapse-time"":2773.9050000000134},{""relative-x"":0.7317708333333334,""relative-y"":0.5532407407407407,""elapse-time"":2810.0149999998976},{""relative-x"":0.8203125,""relative-y"":0.6168981481481481,""elapse-time"":2843.6749999999593},{""relative-x"":0.818359375,""relative-y"":0.6851851851851852,""elapse-time"":2873.564999999973},{""relative-x"":0.8111979166666666,""relative-y"":0.5995370370370371,""elapse-time"":2907.415000000008},{""relative-x"":0.8040364583333334,""relative-y"":0.6805555555555556,""elapse-time"":2939.9899999999616},{""relative-x"":0.6731770833333334,""relative-y"":0.5057870370370371,""elapse-time"":2974.794999999969},{""relative-x"":0.7467447916666666,""relative-y"":0.5798611111111112,""elapse-time"":3008.3899999999558},{""relative-x"":0.7623697916666666,""relative-y"":0.5462962962962963,""elapse-time"":3038.1849999999977},{""relative-x"":0.7552083333333334,""relative-y"":0.6064814814814815,""elapse-time"":3070.1500000000087},{""relative-x"":0.669921875,""relative-y"":0.4710648148148148,""elapse-time"":3105.1299999999173},{""relative-x"":0.7623697916666666,""relative-y"":0.5474537037037037,""elapse-time"":3140.244999999937},{""relative-x"":0.7682291666666666,""relative-y"":0.5347222222222222,""elapse-time"":3182.4899999999034},{""relative-x"":0.751953125,""relative-y"":0.5439814814814815,""elapse-time"":3217.724999999962},{""relative-x"":0.7415364583333334,""relative-y"":0.5358796296296297,""elapse-time"":3243.0449999999255},{""relative-x"":0.7298177083333334,""relative-y"":0.4398148148148148,""elapse-time"":3279.2499999999272},{""relative-x"":0.76171875,""relative-y"":0.5393518518518519,""elapse-time"":3315.634999999922},{""relative-x"":0.8157552083333334,""relative-y"":0.4791666666666667,""elapse-time"":3351.4199999999546},{""relative-x"":0.771484375,""relative-y"":0.5127314814814815,""elapse-time"":3376.6949999999197},{""relative-x"":0.7669270833333334,""relative-y"":0.5023148148148148,""elapse-time"":3401.134999999951},{""relative-x"":0.7662760416666666,""relative-y"":0.5011574074074074,""elapse-time"":3432.9599999999773},{""relative-x"":0.7897135416666666,""relative-y"":0.4444444444444444,""elapse-time"":3460.004999999903},{""relative-x"":0.8326822916666666,""relative-y"":0.41898148148148145,""elapse-time"":3491.2099999999045},{""relative-x"":0.8294270833333334,""relative-y"":0.5358796296296297,""elapse-time"":3521.5650000000023},{""relative-x"":0.7884114583333334,""relative-y"":0.48148148148148145,""elapse-time"":3566.3799999999756},{""relative-x"":0.7903645833333334,""relative-y"":0.4537037037037037,""elapse-time"":3600.4799999999377},{""relative-x"":0.845703125,""relative-y"":0.6261574074074074,""elapse-time"":3637.904999999926},{""relative-x"":0.8190104166666666,""relative-y"":0.5520833333333334,""elapse-time"":3673.2799999999697},{""relative-x"":0.7747395833333334,""relative-y"":0.4930555555555556,""elapse-time"":3706.869999999981},{""relative-x"":0.80859375,""relative-y"":0.5891203703703703,""elapse-time"":3743.875},{""relative-x"":0.8196614583333334,""relative-y"":0.47800925925925924,""elapse-time"":3792.464999999982},{""relative-x"":0.7877604166666666,""relative-y"":0.5543981481481481,""elapse-time"":3822.4000000000087},{""relative-x"":0.54296875,""relative-y"":0.5567129629629629,""elapse-time"":3852.784999999916},{""relative-x"":0.5084635416666666,""relative-y"":0.3958333333333333,""elapse-time"":3887.3599999999424},{""relative-x"":0.55078125,""relative-y"":0.6145833333333334,""elapse-time"":3924.0899999999674},{""relative-x"":0.6028645833333334,""relative-y"":0.3912037037037037,""elapse-time"":3961.7249999999913},{""relative-x"":0.7180989583333334,""relative-y"":0.5254629629629629,""elapse-time"":3986.0350000000035},{""relative-x"":0.689453125,""relative-y"":0.49189814814814814,""elapse-time"":4011.359999999957},{""relative-x"":0.7213541666666666,""relative-y"":0.41782407407407407,""elapse-time"":4051.0049999999173},{""relative-x"":0.7766927083333334,""relative-y"":0.5648148148148148,""elapse-time"":4088.3499999999913},{""relative-x"":0.5859375,""relative-y"":0.3900462962962963,""elapse-time"":4119.0500000000175},{""relative-x"":0.6575520833333334,""relative-y"":0.5555555555555556,""elapse-time"":4157.889999999941},{""relative-x"":0.5872395833333334,""relative-y"":0.3738425925925926,""elapse-time"":4188.054999999964},{""relative-x"":0.7701822916666666,""relative-y"":0.6018518518518519,""elapse-time"":4215.484999999942},{""relative-x"":0.712890625,""relative-y"":0.6574074074074074,""elapse-time"":4246.939999999988},{""relative-x"":0.7708333333333334,""relative-y"":0.6666666666666666,""elapse-time"":4280.939999999988},{""relative-x"":0.8346354166666666,""relative-y"":0.6261574074074074,""elapse-time"":4320.124999999956}]}","""","""","""","""","""","2021-01-13 18:57:42",,"Mozilla/5.0 (Windows NT 10.0; Win64; x64) AppleWebKit/537.36 (KHTML, like Gecko) Chrome/87.0.4280.141 Safari/537.36",WebKit,Chrome,87.0.4280.141,Windows,10.0
8,1,null,"""","""","""","""",html-keyboard-response,20,120648,0.0-12.0-2.0-0.3,261,1,1,"HD User Facing (04f2:b64f)",23755d03b40c84a69486d46887b9e08057f9a365646dd46e177d47ea48c22381,30,0.001388888888888889,720,1280,$4.5,"90 days","""",null,"""","""","""","""","""","""","""","""","""","""","""","2021-01-13 18:57:42",,"Mozilla/5.0 (Windows NT 10.0; Win64; x64) AppleWebKit/537.36 (KHTML, like Gecko) Chrome/87.0.4280.141 Safari/537.36",WebKit,Chrome,87.0.4280.141,Windows,10.0
8,1,"""","""","""",1536,864,eyetracking-calibration,21,124867,0.0-12.0-2.0-1.3,261,1,1,"HD User Facing (04f2:b64f)",23755d03b40c84a69486d46887b9e08057f9a365646dd46e177d47ea48c22381,30,0.001388888888888889,720,1280,$4.5,"90 days","""","""","""",0.5,0.5,1,0,"{""history"":[{""relative-x"":0.6647135416666666,""relative-y"":0.5949074074074074,""elapse-time"":57.73499999997148},{""relative-x"":0.5696614583333334,""relative-y"":0.4398148148148148,""elapse-time"":89.35000000007858},{""relative-x"":0.61328125,""relative-y"":0.4988425925925926,""elapse-time"":124.4199999999837},{""relative-x"":0.6139322916666666,""relative-y"":0.5254629629629629,""elapse-time"":159.84500000001572},{""relative-x"":0.5768229166666666,""relative-y"":0.5057870370370371,""elapse-time"":180.38999999998487},{""relative-x"":0.5188802083333334,""relative-y"":0.4583333333333333,""elapse-time"":216.4900000000198},{""relative-x"":0.607421875,""relative-y"":0.5520833333333334,""elapse-time"":246.48500000000058},{""relative-x"":0.6321614583333334,""relative-y"":0.5682870370370371,""elapse-time"":266.0650000000169},{""relative-x"":0.5774739583333334,""relative-y"":0.5023148148148148,""elapse-time"":285.9950000000681},{""relative-x"":0.615234375,""relative-y"":0.4791666666666667,""elapse-time"":310.4200000000128},{""relative-x"":0.537109375,""relative-y"":0.5138888888888888,""elapse-time"":343.34500000000116},{""relative-x"":0.6614583333333334,""relative-y"":0.4756944444444444,""elapse-time"":378.51499999998487},{""relative-x"":0.607421875,""relative-y"":0.48032407407407407,""elapse-time"":409.92500000004657},{""relative-x"":0.7369791666666666,""relative-y"":0.5682870370370371,""elapse-time"":449.4849999999715},{""relative-x"":0.6744791666666666,""relative-y"":0.49421296296296297,""elapse-time"":483.995000000039},{""relative-x"":0.6236979166666666,""relative-y"":0.4722222222222222,""elapse-time"":513.9700000000885},{""relative-x"":0.5221354166666666,""relative-y"":0.5289351851851852,""elapse-time"":546.1050000000105},{""relative-x"":0.6471354166666666,""relative-y"":0.4861111111111111,""elapse-time"":584.1950000000215},{""relative-x"":0.5983072916666666,""relative-y"":0.5439814814814815,""elapse-time"":618.9600000000064},{""relative-x"":0.5436197916666666,""relative-y"":0.44212962962962965,""elapse-time"":650.4700000000303},{""relative-x"":0.689453125,""relative-y"":0.5393518518518519,""elapse-time"":669.7850000000471},{""relative-x"":0.5703125,""relative-y"":0.5590277777777778,""elapse-time"":702.625},{""relative-x"":0.6165364583333334,""relative-y"":0.48032407407407407,""elapse-time"":737.0950000000594},{""relative-x"":0.6627604166666666,""relative-y"":0.5416666666666666,""elapse-time"":771.3600000000733},{""relative-x"":0.779296875,""relative-y"":0.48842592592592593,""elapse-time"":825.3050000000658},{""relative-x"":0.6497395833333334,""relative-y"":0.5300925925925926,""elapse-time"":868.7650000000431},{""relative-x"":0.6712239583333334,""relative-y"":0.5648148148148148,""elapse-time"":908.1550000000716},{""relative-x"":0.5846354166666666,""relative-y"":0.6203703703703703,""elapse-time"":949.7449999999953},{""relative-x"":0.5924479166666666,""relative-y"":0.4965277777777778,""elapse-time"":984.1949999999924},{""relative-x"":0.490234375,""relative-y"":0.43171296296296297,""elapse-time"":1024.4250000000611},{""relative-x"":0.654296875,""relative-y"":0.41550925925925924,""elapse-time"":1063.7300000000687},{""relative-x"":0.658203125,""relative-y"":0.4363425925925926,""elapse-time"":1098.9600000000355},{""relative-x"":0.587890625,""relative-y"":0.59375,""elapse-time"":1140.0300000000134},{""relative-x"":0.5611979166666666,""relative-y"":0.5289351851851852,""elapse-time"":1176.9600000000064},{""relative-x"":0.5598958333333334,""relative-y"":0.5555555555555556,""elapse-time"":1222.7250000000786},{""relative-x"":0.603515625,""relative-y"":0.6203703703703703,""elapse-time"":1260.354999999996},{""relative-x"":0.5709635416666666,""relative-y"":0.5474537037037037,""elapse-time"":1303.179999999993},{""relative-x"":0.5279947916666666,""relative-y"":0.49421296296296297,""elapse-time"":1341.3199999999924},{""relative-x"":0.6321614583333334,""relative-y"":0.5347222222222222,""elapse-time"":1369.530000000057},{""relative-x"":0.5032552083333334,""relative-y"":0.5185185185185185,""elapse-time"":1395.9750000000204},{""relative-x"":0.4908854166666667,""relative-y"":0.5196759259259259,""elapse-time"":1428.9899999999907},{""relative-x"":0.517578125,""relative-y"":0.5891203703703703,""elapse-time"":1471.535000000018},{""relative-x"":0.587890625,""relative-y"":0.5173611111111112,""elapse-time"":1510.6850000000704},{""relative-x"":0.5598958333333334,""relative-y"":0.4722222222222222,""elapse-time"":1549.4500000000844},{""relative-x"":0.5885416666666666,""relative-y"":0.5810185185185185,""elapse-time"":1584.8700000000244},{""relative-x"":0.5390625,""relative-y"":0.5231481481481481,""elapse-time"":1606.740000000049},{""relative-x"":0.5390625,""relative-y"":0.5231481481481481,""elapse-time"":1630.3199999999779},{""relative-x"":0.5729166666666666,""relative-y"":0.6307870370370371,""elapse-time"":1661.0749999999825},{""relative-x"":0.5533854166666666,""relative-y"":0.5520833333333334,""elapse-time"":1687.4500000000116},{""relative-x"":0.5423177083333334,""relative-y"":0.49421296296296297,""elapse-time"":1707.8850000000239},{""relative-x"":0.4830729166666667,""relative-y"":0.5104166666666666,""elapse-time"":1740.0150000000867},{""relative-x"":0.48828125,""relative-y"":0.4236111111111111,""elapse-time"":1768.550000000003},{""relative-x"":0.6178385416666666,""relative-y"":0.5682870370370371,""elapse-time"":1802.7250000000058},{""relative-x"":0.6178385416666666,""relative-y"":0.5682870370370371,""elapse-time"":1835.1650000000664},{""relative-x"":0.5208333333333334,""relative-y"":0.5208333333333334,""elapse-time"":1881.4150000000518},{""relative-x"":0.5110677083333334,""relative-y"":0.4861111111111111,""elapse-time"":1904.215000000011},{""relative-x"":0.5188802083333334,""relative-y"":0.4791666666666667,""elapse-time"":1937.7699999999895},{""relative-x"":0.5247395833333334,""relative-y"":0.5613425925925926,""elapse-time"":1975.2250000000204},{""relative-x"":0.546875,""relative-y"":0.4791666666666667,""elapse-time"":2012.5100000000093},{""relative-x"":0.4921875,""relative-y"":0.5289351851851852,""elapse-time"":2045.4000000000815},{""relative-x"":0.498046875,""relative-y"":0.4270833333333333,""elapse-time"":2097.7599999999948},{""relative-x"":0.4765625,""relative-y"":0.4722222222222222,""elapse-time"":2144.4350000000413},{""relative-x"":0.4440104166666667,""relative-y"":0.5138888888888888,""elapse-time"":2166.3800000000047},{""relative-x"":0.66015625,""relative-y"":0.5451388888888888,""elapse-time"":2194.6500000000233},{""relative-x"":0.5026041666666666,""relative-y"":0.4664351851851852,""elapse-time"":2225.734999999986},{""relative-x"":0.5651041666666666,""relative-y"":0.46064814814814814,""elapse-time"":2261.910000000047},{""relative-x"":0.55859375,""relative-y"":0.4895833333333333,""elapse-time"":2309.9150000000373},{""relative-x"":0.509765625,""relative-y"":0.4965277777777778,""elapse-time"":2344.8000000000757},{""relative-x"":0.4856770833333333,""relative-y"":0.4583333333333333,""elapse-time"":2384.350000000035},{""relative-x"":0.5013020833333334,""relative-y"":0.4837962962962963,""elapse-time"":2406.569999999978},{""relative-x"":0.5013020833333334,""relative-y"":0.4837962962962963,""elapse-time"":2428.584999999992},{""relative-x"":0.51171875,""relative-y"":0.46412037037037035,""elapse-time"":2467.2199999999866},{""relative-x"":0.55859375,""relative-y"":0.5416666666666666,""elapse-time"":2497.4600000000355},{""relative-x"":0.6080729166666666,""relative-y"":0.5625,""elapse-time"":2532.9700000000885},{""relative-x"":0.5436197916666666,""relative-y"":0.4837962962962963,""elapse-time"":2572.670000000013},{""relative-x"":0.6009114583333334,""relative-y"":0.5555555555555556,""elapse-time"":2607.1900000000605},{""relative-x"":0.57421875,""relative-y"":0.5914351851851852,""elapse-time"":2640.6299999999756},{""relative-x"":0.5559895833333334,""relative-y"":0.5393518518518519,""elapse-time"":2661.5149999999994},{""relative-x"":0.5436197916666666,""relative-y"":0.5127314814814815,""elapse-time"":2690.710000000079},{""relative-x"":0.5305989583333334,""relative-y"":0.5393518518518519,""elapse-time"":2728.815000000046},{""relative-x"":0.5071614583333334,""relative-y"":0.4930555555555556,""elapse-time"":2766.75},{""relative-x"":0.546875,""relative-y"":0.5613425925925926,""elapse-time"":2802.625000000029},{""relative-x"":0.587890625,""relative-y"":0.5636574074074074,""elapse-time"":2832.2600000000093},{""relative-x"":0.529296875,""relative-y"":0.5162037037037037,""elapse-time"":2859.640000000014},{""relative-x"":0.55859375,""relative-y"":0.5520833333333334,""elapse-time"":2887.2549999999756},{""relative-x"":0.5455729166666666,""relative-y"":0.5138888888888888,""elapse-time"":2922.9550000000017},{""relative-x"":0.5325520833333334,""relative-y"":0.5081018518518519,""elapse-time"":2960.6049999999814},{""relative-x"":0.556640625,""relative-y"":0.5092592592592593,""elapse-time"":2996.314999999973},{""relative-x"":0.5221354166666666,""relative-y"":0.5231481481481481,""elapse-time"":3024.235000000088},{""relative-x"":0.5618489583333334,""relative-y"":0.5555555555555556,""elapse-time"":3066.835000000079},{""relative-x"":0.5266927083333334,""relative-y"":0.5474537037037037,""elapse-time"":3098.8800000000047},{""relative-x"":0.5240885416666666,""relative-y"":0.5891203703703703,""elapse-time"":3131.984999999986},{""relative-x"":0.52734375,""relative-y"":0.5335648148148148,""elapse-time"":3155.6000000000495},{""relative-x"":0.533203125,""relative-y"":0.5625,""elapse-time"":3184.7800000000425},{""relative-x"":0.4498697916666667,""relative-y"":0.3472222222222222,""elapse-time"":3221.0200000000623},{""relative-x"":0.5162760416666666,""relative-y"":0.4305555555555556,""elapse-time"":3255.7350000000733},{""relative-x"":0.4563802083333333,""relative-y"":0.33912037037037035,""elapse-time"":3292.289999999979},{""relative-x"":0.4270833333333333,""relative-y"":0.2523148148148148,""elapse-time"":3329.7150000000693},{""relative-x"":0.4850260416666667,""relative-y"":0.3819444444444444,""elapse-time"":3367.46500000004},{""relative-x"":0.5989583333333334,""relative-y"":0.4236111111111111,""elapse-time"":3397.649999999994},{""relative-x"":0.5970052083333334,""relative-y"":0.4826388888888889,""elapse-time"":3427.1049999999814},{""relative-x"":0.5852864583333334,""relative-y"":0.5787037037037037,""elapse-time"":3457.605000000054},{""relative-x"":0.5338541666666666,""relative-y"":0.46296296296296297,""elapse-time"":3491.600000000064},{""relative-x"":0.5514322916666666,""relative-y"":0.5914351851851852,""elapse-time"":3530.990000000078},{""relative-x"":0.591796875,""relative-y"":0.5347222222222222,""elapse-time"":3569.990000000078},{""relative-x"":0.48828125,""relative-y"":0.5972222222222222,""elapse-time"":3601.605000000054},{""relative-x"":0.376953125,""relative-y"":0.5243055555555556,""elapse-time"":3635.05000000009},{""relative-x"":0.3880208333333333,""relative-y"":0.5543981481481481,""elapse-time"":3670.9950000000536},{""relative-x"":0.4368489583333333,""relative-y"":0.5497685185185185,""elapse-time"":3708.165000000008},{""relative-x"":0.5299479166666666,""relative-y"":0.48032407407407407,""elapse-time"":3737.790000000008},{""relative-x"":0.505859375,""relative-y"":0.49421296296296297,""elapse-time"":3770.084999999992},{""relative-x"":0.5364583333333334,""relative-y"":0.4965277777777778,""elapse-time"":3805.3050000000803},{""relative-x"":0.5423177083333334,""relative-y"":0.4965277777777778,""elapse-time"":3838.130000000092},{""relative-x"":0.5358072916666666,""relative-y"":0.5590277777777778,""elapse-time"":3876.405000000086},{""relative-x"":0.57421875,""relative-y"":0.5347222222222222,""elapse-time"":3912.284999999989},{""relative-x"":0.5865885416666666,""relative-y"":0.5844907407407407,""elapse-time"":3940.0850000000646},{""relative-x"":0.533203125,""relative-y"":0.6342592592592593,""elapse-time"":3979.57500000007},{""relative-x"":0.4498697916666667,""relative-y"":0.5497685185185185,""elapse-time"":4032.350000000064},{""relative-x"":0.4375,""relative-y"":0.5567129629629629,""elapse-time"":4076.745000000068},{""relative-x"":0.4830729166666667,""relative-y"":0.5856481481481481,""elapse-time"":4108.6050000000105},{""relative-x"":0.583984375,""relative-y"":0.5682870370370371,""elapse-time"":4144.1500000000815},{""relative-x"":0.5377604166666666,""relative-y"":0.6226851851851852,""elapse-time"":4178.515000000058},{""relative-x"":0.5475260416666666,""relative-y"":0.5844907407407407,""elapse-time"":4212.410000000091}]}","""","""","""","""","""","2021-01-13 18:57:42",,"Mozilla/5.0 (Windows NT 10.0; Win64; x64) AppleWebKit/537.36 (KHTML, like Gecko) Chrome/87.0.4280.141 Safari/537.36",WebKit,Chrome,87.0.4280.141,Windows,10.0
8,1,null,"""","""","""","""",html-keyboard-response,22,126376,0.0-12.0-2.0-0.4,261,1,1,"HD User Facing (04f2:b64f)",23755d03b40c84a69486d46887b9e08057f9a365646dd46e177d47ea48c22381,30,0.001388888888888889,720,1280,$4.5,"90 days","""",null,"""","""","""","""","""","""","""","""","""","""","""","2021-01-13 18:57:42",,"Mozilla/5.0 (Windows NT 10.0; Win64; x64) AppleWebKit/537.36 (KHTML, like Gecko) Chrome/87.0.4280.141 Safari/537.36",WebKit,Chrome,87.0.4280.141,Windows,10.0
8,1,"""","""","""",1536,864,eyetracking-calibration,23,131203,0.0-12.0-2.0-1.4,261,1,1,"HD User Facing (04f2:b64f)",23755d03b40c84a69486d46887b9e08057f9a365646dd46e177d47ea48c22381,30,0.001388888888888889,720,1280,$4.5,"90 days","""","""","""",0.8,0.2,1,0,"{""history"":[{""relative-x"":0.4088541666666667,""relative-y"":0.1909722222222222,""elapse-time"":56.875},{""relative-x"":0.37890625,""relative-y"":0.47800925925925924,""elapse-time"":93.16000000001804},{""relative-x"":0.5013020833333334,""relative-y"":0.41898148148148145,""elapse-time"":133.27500000002328},{""relative-x"":0.529296875,""relative-y"":0.41550925925925924,""elapse-time"":167.9199999999837},{""relative-x"":0.5358072916666666,""relative-y"":0.5451388888888888,""elapse-time"":201.30000000006112},{""relative-x"":0.6393229166666666,""relative-y"":0.5902777777777778,""elapse-time"":237.61500000000524},{""relative-x"":0.791015625,""relative-y"":0.6666666666666666,""elapse-time"":272.7200000000448},{""relative-x"":0.634765625,""relative-y"":0.5810185185185185,""elapse-time"":308.3500000000204},{""relative-x"":0.767578125,""relative-y"":0.5659722222222222,""elapse-time"":339.0950000000448},{""relative-x"":0.767578125,""relative-y"":0.5659722222222222,""elapse-time"":371.7100000000064},{""relative-x"":0.6888020833333334,""relative-y"":0.5023148148148148,""elapse-time"":419.02500000003783},{""relative-x"":0.705078125,""relative-y"":0.5358796296296297,""elapse-time"":455.5250000000815},{""relative-x"":0.896484375,""relative-y"":0.4895833333333333,""elapse-time"":497.49000000009255},{""relative-x"":0.7356770833333334,""relative-y"":0.47337962962962965,""elapse-time"":530.2750000000815},{""relative-x"":0.8098958333333334,""relative-y"":0.6192129629629629,""elapse-time"":575.6700000000565},{""relative-x"":0.86328125,""relative-y"":0.5370370370370371,""elapse-time"":610.4950000000099},{""relative-x"":0.767578125,""relative-y"":0.46875,""elapse-time"":631.6150000000198},{""relative-x"":0.767578125,""relative-y"":0.46875,""elapse-time"":652.7700000000332},{""relative-x"":0.8678385416666666,""relative-y"":0.48032407407407407,""elapse-time"":675.1249999999854},{""relative-x"":0.8059895833333334,""relative-y"":0.5162037037037037,""elapse-time"":699.1000000000495},{""relative-x"":0.7174479166666666,""relative-y"":0.5115740740740741,""elapse-time"":720.3050000000512},{""relative-x"":0.7415364583333334,""relative-y"":0.4722222222222222,""elapse-time"":744.6499999999796},{""relative-x"":0.7526041666666666,""relative-y"":0.4166666666666667,""elapse-time"":768.7600000000384},{""relative-x"":0.751953125,""relative-y"":0.44212962962962965,""elapse-time"":790.3700000000536},{""relative-x"":0.7916666666666666,""relative-y"":0.25578703703703703,""elapse-time"":825.0850000000646},{""relative-x"":0.7727864583333334,""relative-y"":0.4861111111111111,""elapse-time"":867.9300000000076},{""relative-x"":0.705078125,""relative-y"":0.36921296296296297,""elapse-time"":904.8050000000076},{""relative-x"":0.7858072916666666,""relative-y"":0.26273148148148145,""elapse-time"":946.1499999999942},{""relative-x"":0.6490885416666666,""relative-y"":0.22916666666666666,""elapse-time"":985.5049999999901},{""relative-x"":0.6861979166666666,""relative-y"":0.2199074074074074,""elapse-time"":1031.4500000000698},{""relative-x"":0.697265625,""relative-y"":0.2777777777777778,""elapse-time"":1067.20500000006},{""relative-x"":0.5970052083333334,""relative-y"":0.3194444444444444,""elapse-time"":1105.0000000000146},{""relative-x"":0.7369791666666666,""relative-y"":0.30092592592592593,""elapse-time"":1141.630000000092},{""relative-x"":0.77734375,""relative-y"":0.2199074074074074,""elapse-time"":1182.9549999999872},{""relative-x"":0.79296875,""relative-y"":0.42476851851851855,""elapse-time"":1220.9400000000314},{""relative-x"":0.8313802083333334,""relative-y"":0.40046296296296297,""elapse-time"":1258.7550000000629},{""relative-x"":0.7903645833333334,""relative-y"":0.3854166666666667,""elapse-time"":1294.2649999999849},{""relative-x"":0.880859375,""relative-y"":0.3958333333333333,""elapse-time"":1331.0650000000896},{""relative-x"":0.7786458333333334,""relative-y"":0.3645833333333333,""elapse-time"":1370.1200000000536},{""relative-x"":0.6692708333333334,""relative-y"":0.28125,""elapse-time"":1407.0800000000745},{""relative-x"":0.8736979166666666,""relative-y"":0.3958333333333333,""elapse-time"":1442.4650000000838},{""relative-x"":0.8333333333333334,""relative-y"":0.40046296296296297,""elapse-time"":1481.499999999971},{""relative-x"":0.7584635416666666,""relative-y"":0.27314814814814814,""elapse-time"":1513.4200000000128},{""relative-x"":0.7962239583333334,""relative-y"":0.3055555555555556,""elapse-time"":1550.4349999999977},{""relative-x"":0.7591145833333334,""relative-y"":0.31712962962962965,""elapse-time"":1585.109999999986},{""relative-x"":0.8092447916666666,""relative-y"":0.3194444444444444,""elapse-time"":1619.9800000000687},{""relative-x"":0.7890625,""relative-y"":0.3287037037037037,""elapse-time"":1659.8750000000582},{""relative-x"":0.8248697916666666,""relative-y"":0.2465277777777778,""elapse-time"":1699.0799999999872},{""relative-x"":0.7779947916666666,""relative-y"":0.25578703703703703,""elapse-time"":1733.5000000000582},{""relative-x"":0.8541666666666666,""relative-y"":0.24305555555555555,""elapse-time"":1783.820000000007},{""relative-x"":0.9361979166666666,""relative-y"":0.35532407407407407,""elapse-time"":1831.585000000021},{""relative-x"":0.83203125,""relative-y"":0.3125,""elapse-time"":1873.3399999999965},{""relative-x"":0.931640625,""relative-y"":0.4050925925925926,""elapse-time"":1913.170000000042},{""relative-x"":0.7669270833333334,""relative-y"":0.32060185185185186,""elapse-time"":1946.3900000000722},{""relative-x"":0.9264322916666666,""relative-y"":0.41550925925925924,""elapse-time"":1982.4899999999907},{""relative-x"":0.8248697916666666,""relative-y"":0.19675925925925927,""elapse-time"":2018.9150000000081},{""relative-x"":0.8411458333333334,""relative-y"":0.3090277777777778,""elapse-time"":2054.6600000000035},{""relative-x"":0.884765625,""relative-y"":0.41087962962962965,""elapse-time"":2093.9250000000175},{""relative-x"":0.9095052083333334,""relative-y"":0.38425925925925924,""elapse-time"":2132.185000000056},{""relative-x"":0.7864583333333334,""relative-y"":0.3541666666666667,""elapse-time"":2160.6050000000396},{""relative-x"":0.79296875,""relative-y"":0.3368055555555556,""elapse-time"":2200.875},{""relative-x"":0.8248697916666666,""relative-y"":0.28935185185185186,""elapse-time"":2234.435000000085},{""relative-x"":0.8346354166666666,""relative-y"":0.4340277777777778,""elapse-time"":2275.4150000000664},{""relative-x"":0.6686197916666666,""relative-y"":0.22569444444444445,""elapse-time"":2313.8300000000454},{""relative-x"":0.6223958333333334,""relative-y"":0.5185185185185185,""elapse-time"":2346.7299999999814},{""relative-x"":0.6569010416666666,""relative-y"":0.29050925925925924,""elapse-time"":2385.7750000000815},{""relative-x"":0.6725260416666666,""relative-y"":0.46064814814814814,""elapse-time"":2421.0400000000664},{""relative-x"":0.6868489583333334,""relative-y"":0.4583333333333333,""elapse-time"":2457.1100000000733},{""relative-x"":0.7688802083333334,""relative-y"":0.6793981481481481,""elapse-time"":2494.6600000000617},{""relative-x"":0.8287760416666666,""relative-y"":0.6018518518518519,""elapse-time"":2532.8150000000314},{""relative-x"":0.8391927083333334,""relative-y"":0.6620370370370371,""elapse-time"":2568.7600000000093},{""relative-x"":0.6803385416666666,""relative-y"":0.20601851851851852,""elapse-time"":2599.7700000000477},{""relative-x"":0.6744791666666666,""relative-y"":0.1863425925925926,""elapse-time"":2632.7700000000477},{""relative-x"":0.67578125,""relative-y"":0.27662037037037035,""elapse-time"":2665.7850000000326},{""relative-x"":0.6575520833333334,""relative-y"":0.29976851851851855,""elapse-time"":2703.090000000084},{""relative-x"":0.748046875,""relative-y"":0.25578703703703703,""elapse-time"":2738.524999999994},{""relative-x"":0.7884114583333334,""relative-y"":0.3715277777777778,""elapse-time"":2775.3549999999814},{""relative-x"":0.8802083333333334,""relative-y"":0.49537037037037035,""elapse-time"":2812.1900000000023},{""relative-x"":0.8131510416666666,""relative-y"":0.30439814814814814,""elapse-time"":2846.999999999971},{""relative-x"":0.84765625,""relative-y"":0.42476851851851855,""elapse-time"":2884.5499999999884},{""relative-x"":0.7890625,""relative-y"":0.2974537037037037,""elapse-time"":2914.625},{""relative-x"":0.7766927083333334,""relative-y"":0.25462962962962965,""elapse-time"":2954.6750000000757},{""relative-x"":0.7779947916666666,""relative-y"":0.2916666666666667,""elapse-time"":2981.584999999992},{""relative-x"":0.7890625,""relative-y"":0.3263888888888889,""elapse-time"":3018.3850000000966},{""relative-x"":0.888671875,""relative-y"":0.5173611111111112,""elapse-time"":3054.7450000000244},{""relative-x"":0.8639322916666666,""relative-y"":0.5254629629629629,""elapse-time"":3095.9950000000244},{""relative-x"":0.8287760416666666,""relative-y"":0.46064814814814814,""elapse-time"":3131.7000000000116},{""relative-x"":0.7942708333333334,""relative-y"":0.41550925925925924,""elapse-time"":3169.7550000000047},{""relative-x"":0.8001302083333334,""relative-y"":0.2951388888888889,""elapse-time"":3198.359999999986},{""relative-x"":0.7884114583333334,""relative-y"":0.34375,""elapse-time"":3219.5599999999977},{""relative-x"":0.7233072916666666,""relative-y"":0.3287037037037037,""elapse-time"":3240.7900000000664},{""relative-x"":0.7688802083333334,""relative-y"":0.32407407407407407,""elapse-time"":3260.665000000008},{""relative-x"":0.8203125,""relative-y"":0.2951388888888889,""elapse-time"":3282.670000000042},{""relative-x"":0.7884114583333334,""relative-y"":0.3425925925925926,""elapse-time"":3302.6449999999895},{""relative-x"":0.7884114583333334,""relative-y"":0.3425925925925926,""elapse-time"":3336.520000000077},{""relative-x"":0.8684895833333334,""relative-y"":0.3460648148148148,""elapse-time"":3375.3000000000466},{""relative-x"":0.8639322916666666,""relative-y"":0.3101851851851852,""elapse-time"":3407.160000000091},{""relative-x"":0.8333333333333334,""relative-y"":0.25462962962962965,""elapse-time"":3437.2050000000745},{""relative-x"":0.8001302083333334,""relative-y"":0.3761574074074074,""elapse-time"":3467.5450000001},{""relative-x"":0.8346354166666666,""relative-y"":0.4212962962962963,""elapse-time"":3514.1750000000175},{""relative-x"":0.7623697916666666,""relative-y"":0.2916666666666667,""elapse-time"":3553.880000000063},{""relative-x"":0.8346354166666666,""relative-y"":0.2361111111111111,""elapse-time"":3588.8250000000407},{""relative-x"":0.7864583333333334,""relative-y"":0.23726851851851852,""elapse-time"":3620.0050000000047},{""relative-x"":0.7747395833333334,""relative-y"":0.28125,""elapse-time"":3649.0550000000803},{""relative-x"":0.8190104166666666,""relative-y"":0.2488425925925926,""elapse-time"":3683.600000000064},{""relative-x"":0.6100260416666666,""relative-y"":0.15856481481481483,""elapse-time"":3720.5650000000896},{""relative-x"":0.5768229166666666,""relative-y"":0.2847222222222222,""elapse-time"":3786.875},{""relative-x"":0.6061197916666666,""relative-y"":0.25,""elapse-time"":3828.345000000001},{""relative-x"":0.6321614583333334,""relative-y"":0.23958333333333334,""elapse-time"":3870.3450000000594},{""relative-x"":0.6334635416666666,""relative-y"":0.4305555555555556,""elapse-time"":3911.335000000021},{""relative-x"":0.6712239583333334,""relative-y"":0.032407407407407406,""elapse-time"":3948.6600000000326},{""relative-x"":0.625,""relative-y"":0.1701388888888889,""elapse-time"":3987.7200000000885},{""relative-x"":0.703125,""relative-y"":0.36226851851851855,""elapse-time"":4015.7149999999965},{""relative-x"":0.7252604166666666,""relative-y"":0.23958333333333334,""elapse-time"":4062.6050000000687},{""relative-x"":0.62890625,""relative-y"":0.33217592592592593,""elapse-time"":4102.730000000069},{""relative-x"":0.6529947916666666,""relative-y"":0.5173611111111112,""elapse-time"":4135.809999999998},{""relative-x"":0.6686197916666666,""relative-y"":0.3819444444444444,""elapse-time"":4161.0800000000745},{""relative-x"":0.7259114583333334,""relative-y"":0.2361111111111111,""elapse-time"":4185.950000000041},{""relative-x"":0.755859375,""relative-y"":0.5451388888888888,""elapse-time"":4216.364999999991},{""relative-x"":0.7845052083333334,""relative-y"":0.3298611111111111,""elapse-time"":4251.3949999999895},{""relative-x"":0.7252604166666666,""relative-y"":0.44907407407407407,""elapse-time"":4288.800000000047},{""relative-x"":0.7799479166666666,""relative-y"":0.4027777777777778,""elapse-time"":4315.775000000023},{""relative-x"":0.7760416666666666,""relative-y"":0.5810185185185185,""elapse-time"":4338.524999999994},{""relative-x"":0.736328125,""relative-y"":0.1550925925925926,""elapse-time"":4372.680000000051},{""relative-x"":0.8307291666666666,""relative-y"":0.1736111111111111,""elapse-time"":4409.975000000035},{""relative-x"":0.8782552083333334,""relative-y"":0.16666666666666666,""elapse-time"":4450.5250000000815},{""relative-x"":0.73046875,""relative-y"":0.011574074074074073,""elapse-time"":4488.350000000093},{""relative-x"":0.5696614583333334,""relative-y"":0.44212962962962965,""elapse-time"":4525.735000000044},{""relative-x"":0.5462239583333334,""relative-y"":0.4039351851851852,""elapse-time"":4557.21000000005},{""relative-x"":0.6380208333333334,""relative-y"":0.5196759259259259,""elapse-time"":4595.0250000000815},{""relative-x"":0.7239583333333334,""relative-y"":0.26157407407407407,""elapse-time"":4632.614999999991},{""relative-x"":0.6796875,""relative-y"":0.4039351851851852,""elapse-time"":4671.530000000086},{""relative-x"":0.7838541666666666,""relative-y"":0.13310185185185186,""elapse-time"":4709.175000000076},{""relative-x"":0.5794270833333334,""relative-y"":0.16087962962962962,""elapse-time"":4740.570000000036},{""relative-x"":0.6875,""relative-y"":0.33564814814814814,""elapse-time"":4776.929999999993},{""relative-x"":0.78515625,""relative-y"":0.3587962962962963,""elapse-time"":4817.335000000079}]}","""","""","""","""","""","2021-01-13 18:57:42",,"Mozilla/5.0 (Windows NT 10.0; Win64; x64) AppleWebKit/537.36 (KHTML, like Gecko) Chrome/87.0.4280.141 Safari/537.36",WebKit,Chrome,87.0.4280.141,Windows,10.0
8,1,null,"""","""","""","""",html-keyboard-response,24,132709,0.0-12.0-2.0-0.5,261,1,1,"HD User Facing (04f2:b64f)",23755d03b40c84a69486d46887b9e08057f9a365646dd46e177d47ea48c22381,30,0.001388888888888889,720,1280,$4.5,"90 days","""",null,"""","""","""","""","""","""","""","""","""","""","""","2021-01-13 18:57:42",,"Mozilla/5.0 (Windows NT 10.0; Win64; x64) AppleWebKit/537.36 (KHTML, like Gecko) Chrome/87.0.4280.141 Safari/537.36",WebKit,Chrome,87.0.4280.141,Windows,10.0
