run_id,condition,rt,stimulus,button_pressed,window_width,window_height,trial_type,trial_index,time_elapsed,internal_node_id,subject,chinFirst,choiceTask_amountLeftFirst,webcam_label,webcam_Id,webcam_fps,webcam_aspectRatio,webcam_height,webcam_width,responses,key_press,success,x_pos,y_pos,chin,task_nr,eyeData,trial_duration,option_topLeft,option_bottomLeft,option_topRight,option_bottomRight,recorded_at,ip,user_agent,device,browser,browser_version,platform,platform_version
4,1,4339,"<div style=""position: fixed; display: inline-block; top: 20%; right: 20%; text-align: right;""><img src=""fu_logo.PNG"" alt=""[FU Berlin Logo]"" style=""width: 25%;""></div><div><br><br><p><strong>Welcome, dear participant! </strong></p><p>Thank you for your interest in and your support for our research.<br> This study is run by researchers at Freie Universität Berlin. </p></div>",0,1280,700,html-button-response,0,4377,0.0-0.0,753,0,0,"Integrierte iSight-Kamera",0x2460000005ac8507,30.00003000003,1,480,640,"""","""","""","""","""","""","""","""","""","""","""","""","""","2021-01-13 17:59:53",,"Mozilla/5.0 (Macintosh; Intel Mac OS X 10_13_6) AppleWebKit/605.1.15 (KHTML, like Gecko) Version/11.1.2 Safari/605.1.15",Macintosh,Safari,11.1.2,"OS X",10_13_6
4,1,41710.00000000001,"""","""","""","""",survey-html-form,1,46096,0.0-1.0,753,0,0,"Integrierte iSight-Kamera",0x2460000005ac8507,30.00003000003,1,480,640,"{""prolificID"":""LP98""}","""","""","""","""","""","""","""","""","""","""","""","""","2021-01-13 17:59:53",,"Mozilla/5.0 (Macintosh; Intel Mac OS X 10_13_6) AppleWebKit/605.1.15 (KHTML, like Gecko) Version/11.1.2 Safari/605.1.15",Macintosh,Safari,11.1.2,"OS X",10_13_6
4,1,3129,"<p>Please, use only <strong>one monitor</strong> for this study.<br>If necessary, switch off the other monitors.</p>",0,"""","""",html-button-response,2,49228,0.0-2.0,753,0,0,"Integrierte iSight-Kamera",0x2460000005ac8507,30.00003000003,1,480,640,"""","""","""","""","""","""","""","""","""","""","""","""","""","2021-01-13 17:59:53",,"Mozilla/5.0 (Macintosh; Intel Mac OS X 10_13_6) AppleWebKit/605.1.15 (KHTML, like Gecko) Version/11.1.2 Safari/605.1.15",Macintosh,Safari,11.1.2,"OS X",10_13_6
4,1,7747,"<p><strong>Please turn your mobile phone into Airplane Mode and close all CPU- or data-intensive programs and websites!</strong><br> (e.g. running Youtube Videos or Torrents)</p>",0,"""","""",html-button-response,3,56978,0.0-3.0,753,0,0,"Integrierte iSight-Kamera",0x2460000005ac8507,30.00003000003,1,480,640,"""","""","""","""","""","""","""","""","""","""","""","""","""","2021-01-13 17:59:53",,"Mozilla/5.0 (Macintosh; Intel Mac OS X 10_13_6) AppleWebKit/605.1.15 (KHTML, like Gecko) Version/11.1.2 Safari/605.1.15",Macintosh,Safari,11.1.2,"OS X",10_13_6
4,1,null,"""","""","""","""",html-keyboard-response,4,57408,0.0-4.0,753,0,0,"Integrierte iSight-Kamera",0x2460000005ac8507,30.00003000003,1,480,640,"""",null,"""","""","""","""","""","""","""","""","""","""","""","2021-01-13 17:59:53",,"Mozilla/5.0 (Macintosh; Intel Mac OS X 10_13_6) AppleWebKit/605.1.15 (KHTML, like Gecko) Version/11.1.2 Safari/605.1.15",Macintosh,Safari,11.1.2,"OS X",10_13_6
4,1,null,"""","""","""","""",html-keyboard-response,5,57668,0.0-5.0,753,0,0,"Integrierte iSight-Kamera",0x2460000005ac8507,30.00003000003,1,480,640,"""",null,"""","""","""","""","""","""","""","""","""","""","""","2021-01-13 17:59:53",,"Mozilla/5.0 (Macintosh; Intel Mac OS X 10_13_6) AppleWebKit/605.1.15 (KHTML, like Gecko) Version/11.1.2 Safari/605.1.15",Macintosh,Safari,11.1.2,"OS X",10_13_6
4,1,47241,"<div style=""width: 45%; text-align: left; margin: auto;""><p><strong>For a preliminary adjustment, please consider the following instructions: </strong></p><ol><li>Sit at a table and make sure that you could later rest your elbows on it. </li><li>Sit towards a window or lamp so that there are no shadows on your face. You might additionally turn on a desk lamp for that. </li></ol></div><img src=""lightInstruct.PNG"" alt=""[Eye-Tracking-Instructions]"" style=""width: 70%;"">",0,"""","""",html-button-response,6,104908,0.0-6.0,753,0,0,"Integrierte iSight-Kamera",0x2460000005ac8507,30.00003000003,1,480,640,"""","""","""","""","""","""","""","""","""","""","""","""","""","2021-01-13 17:59:53",,"Mozilla/5.0 (Macintosh; Intel Mac OS X 10_13_6) AppleWebKit/605.1.15 (KHTML, like Gecko) Version/11.1.2 Safari/605.1.15",Macintosh,Safari,11.1.2,"OS X",10_13_6
4,1,11876.999999999985,"<div style=""width: 45%; text-align: left; margin: auto;""><ol start='3'><li>Check the video and stay in the highlighted rectangle so that it becomes green. </li><li>Try as much as possible to follow the instructions on these pictures and avoid moving your head. If you move too much, the calibration can fail and you might not be able to finish the study. </li><li><strong>If necessary, adjust your laptop, monitor, webcam, or chair. </strong></li></ol></div><img src=""ETInstructions.PNG"" alt=""[Eye-Tracking-Instructions]"" style=""width: 70%;"">",0,"""","""",html-button-response,7,116789,0.0-7.0,753,0,0,"Integrierte iSight-Kamera",0x2460000005ac8507,30.00003000003,1,480,640,"""","""","""","""","""","""","""","""","""","""","""","""","""","2021-01-13 17:59:53",,"Mozilla/5.0 (Macintosh; Intel Mac OS X 10_13_6) AppleWebKit/605.1.15 (KHTML, like Gecko) Version/11.1.2 Safari/605.1.15",Macintosh,Safari,11.1.2,"OS X",10_13_6
4,1,"""","""","""",1280,700,fullscreen,8,120100,0.0-8.0,753,0,0,"Integrierte iSight-Kamera",0x2460000005ac8507,30.00003000003,1,480,640,"""","""",true,"""","""","""","""","""","""","""","""","""","""","2021-01-13 17:59:53",,"Mozilla/5.0 (Macintosh; Intel Mac OS X 10_13_6) AppleWebKit/605.1.15 (KHTML, like Gecko) Version/11.1.2 Safari/605.1.15",Macintosh,Safari,11.1.2,"OS X",10_13_6
4,1,11589,"<div style=""width: 45%; margin: auto; text-align: justify;""><p>For the next task, please do <strong>not</strong> rest your head on your arm but keep your head in a natural position. Get sure that you stay in the rectangle in the video stream while doing that. </p><p>However, in order to make this measurement as accurate as possible, please keep your head at the same position at all time so that you <strong>only move your eyes</strong> when you look at the screen. </p></div><p style=""text-align: center;"">Press Space to continue </p>","""","""","""",html-keyboard-response,9,131694,0.0-9.0,753,0,0,"Integrierte iSight-Kamera",0x2460000005ac8507,30.00003000003,1,480,640,"""",32,"""","""","""","""","""","""","""","""","""","""","""","2021-01-13 17:59:53",,"Mozilla/5.0 (Macintosh; Intel Mac OS X 10_13_6) AppleWebKit/605.1.15 (KHTML, like Gecko) Version/11.1.2 Safari/605.1.15",Macintosh,Safari,11.1.2,"OS X",10_13_6
4,1,6251,"<p><strong>Can you stay in that pose for a while?</strong></p><p>If not, then please adjust now in order to be comfortable.</p><br><p>Press Space to continue</p>","""","""","""",html-keyboard-response,10,137946,0.0-10.0,753,0,0,"Integrierte iSight-Kamera",0x2460000005ac8507,30.00003000003,1,480,640,"""",32,"""","""","""","""","""","""","""","""","""","""","""","2021-01-13 17:59:53",,"Mozilla/5.0 (Macintosh; Intel Mac OS X 10_13_6) AppleWebKit/605.1.15 (KHTML, like Gecko) Version/11.1.2 Safari/605.1.15",Macintosh,Safari,11.1.2,"OS X",10_13_6
4,1,16615,"<div style=""position: fixed; top: 30%; left: 27.5%; width: 45%; margin: auto; text-align: justify;""><p>For calibration purposes, there will be buttons (39 in total) appearing one after another. <strong>Click 14x on each button</strong> until it turns green. Then the next button will appear. This will take around <strong>3 minutes. </strong></p><p>For an accurate measurement, please <strong><u>always</u></strong> follow the mouse cursor with your eyes. </p><br><p style=""text-align: center;"">Press Space to continue</p></div>","""","""","""",html-keyboard-response,11,154564,0.0-11.0,753,0,0,"Integrierte iSight-Kamera",0x2460000005ac8507,30.00003000003,1,480,640,"""",32,"""","""","""","""","""","""","""","""","""","""","""","2021-01-13 17:59:53",,"Mozilla/5.0 (Macintosh; Intel Mac OS X 10_13_6) AppleWebKit/605.1.15 (KHTML, like Gecko) Version/11.1.2 Safari/605.1.15",Macintosh,Safari,11.1.2,"OS X",10_13_6
4,1,null,"""","""","""","""",html-keyboard-response,12,154667,0.0-12.0-0.0,753,0,0,"Integrierte iSight-Kamera",0x2460000005ac8507,30.00003000003,1,480,640,"""",null,"""","""","""","""","""","""","""","""","""","""","""","2021-01-13 17:59:53",,"Mozilla/5.0 (Macintosh; Intel Mac OS X 10_13_6) AppleWebKit/605.1.15 (KHTML, like Gecko) Version/11.1.2 Safari/605.1.15",Macintosh,Safari,11.1.2,"OS X",10_13_6
4,1,null,"""","""","""","""",html-keyboard-response,13,154772,0.0-12.0-1.0,753,0,0,"Integrierte iSight-Kamera",0x2460000005ac8507,30.00003000003,1,480,640,"""",null,"""","""","""","""","""","""","""","""","""","""","""","2021-01-13 17:59:53",,"Mozilla/5.0 (Macintosh; Intel Mac OS X 10_13_6) AppleWebKit/605.1.15 (KHTML, like Gecko) Version/11.1.2 Safari/605.1.15",Macintosh,Safari,11.1.2,"OS X",10_13_6
4,1,null,"""","""","""","""",html-keyboard-response,14,156274,0.0-12.0-2.0-0.0,753,0,0,"Integrierte iSight-Kamera",0x2460000005ac8507,30.00003000003,1,480,640,"""",null,"""","""","""","""","""","""","""","""","""","""","""","2021-01-13 17:59:53",,"Mozilla/5.0 (Macintosh; Intel Mac OS X 10_13_6) AppleWebKit/605.1.15 (KHTML, like Gecko) Version/11.1.2 Safari/605.1.15",Macintosh,Safari,11.1.2,"OS X",10_13_6
4,1,"""","""","""",1280,800,eyetracking-calibration,15,164602,0.0-12.0-2.0-1.0,753,0,0,"Integrierte iSight-Kamera",0x2460000005ac8507,30.00003000003,1,480,640,"""","""","""",0.35,0.65,0,0,"{""history"":[]}","""","""","""","""","""","2021-01-13 17:59:53",,"Mozilla/5.0 (Macintosh; Intel Mac OS X 10_13_6) AppleWebKit/605.1.15 (KHTML, like Gecko) Version/11.1.2 Safari/605.1.15",Macintosh,Safari,11.1.2,"OS X",10_13_6
4,1,null,"""","""","""","""",html-keyboard-response,16,166114,0.0-12.0-2.0-0.1,753,0,0,"Integrierte iSight-Kamera",0x2460000005ac8507,30.00003000003,1,480,640,"""",null,"""","""","""","""","""","""","""","""","""","""","""","2021-01-13 17:59:53",,"Mozilla/5.0 (Macintosh; Intel Mac OS X 10_13_6) AppleWebKit/605.1.15 (KHTML, like Gecko) Version/11.1.2 Safari/605.1.15",Macintosh,Safari,11.1.2,"OS X",10_13_6
4,1,"""","""","""",1280,800,eyetracking-calibration,17,171584,0.0-12.0-2.0-1.1,753,0,0,"Integrierte iSight-Kamera",0x2460000005ac8507,30.00003000003,1,480,640,"""","""","""",0.5,0.2,0,0,"{""history"":[]}","""","""","""","""","""","2021-01-13 17:59:53",,"Mozilla/5.0 (Macintosh; Intel Mac OS X 10_13_6) AppleWebKit/605.1.15 (KHTML, like Gecko) Version/11.1.2 Safari/605.1.15",Macintosh,Safari,11.1.2,"OS X",10_13_6
4,1,null,"""","""","""","""",html-keyboard-response,18,173087,0.0-12.0-2.0-0.2,753,0,0,"Integrierte iSight-Kamera",0x2460000005ac8507,30.00003000003,1,480,640,"""",null,"""","""","""","""","""","""","""","""","""","""","""","2021-01-13 17:59:53",,"Mozilla/5.0 (Macintosh; Intel Mac OS X 10_13_6) AppleWebKit/605.1.15 (KHTML, like Gecko) Version/11.1.2 Safari/605.1.15",Macintosh,Safari,11.1.2,"OS X",10_13_6
4,1,"""","""","""",1280,800,eyetracking-calibration,19,178573,0.0-12.0-2.0-1.2,753,0,0,"Integrierte iSight-Kamera",0x2460000005ac8507,30.00003000003,1,480,640,"""","""","""",0.2,0.2,0,0,"{""history"":[]}","""","""","""","""","""","2021-01-13 17:59:53",,"Mozilla/5.0 (Macintosh; Intel Mac OS X 10_13_6) AppleWebKit/605.1.15 (KHTML, like Gecko) Version/11.1.2 Safari/605.1.15",Macintosh,Safari,11.1.2,"OS X",10_13_6
4,1,null,"""","""","""","""",html-keyboard-response,20,180079,0.0-12.0-2.0-0.3,753,0,0,"Integrierte iSight-Kamera",0x2460000005ac8507,30.00003000003,1,480,640,"""",null,"""","""","""","""","""","""","""","""","""","""","""","2021-01-13 17:59:53",,"Mozilla/5.0 (Macintosh; Intel Mac OS X 10_13_6) AppleWebKit/605.1.15 (KHTML, like Gecko) Version/11.1.2 Safari/605.1.15",Macintosh,Safari,11.1.2,"OS X",10_13_6
4,1,"""","""","""",1280,800,eyetracking-calibration,21,186347,0.0-12.0-2.0-1.3,753,0,0,"Integrierte iSight-Kamera",0x2460000005ac8507,30.00003000003,1,480,640,"""","""","""",0.8,0.2,0,0,"{""history"":[]}","""","""","""","""","""","2021-01-13 17:59:53",,"Mozilla/5.0 (Macintosh; Intel Mac OS X 10_13_6) AppleWebKit/605.1.15 (KHTML, like Gecko) Version/11.1.2 Safari/605.1.15",Macintosh,Safari,11.1.2,"OS X",10_13_6
4,1,null,"""","""","""","""",html-keyboard-response,22,187851,0.0-12.0-2.0-0.4,753,0,0,"Integrierte iSight-Kamera",0x2460000005ac8507,30.00003000003,1,480,640,"""",null,"""","""","""","""","""","""","""","""","""","""","""","2021-01-13 17:59:53",,"Mozilla/5.0 (Macintosh; Intel Mac OS X 10_13_6) AppleWebKit/605.1.15 (KHTML, like Gecko) Version/11.1.2 Safari/605.1.15",Macintosh,Safari,11.1.2,"OS X",10_13_6
4,1,"""","""","""",1280,800,eyetracking-calibration,23,193304,0.0-12.0-2.0-1.4,753,0,0,"Integrierte iSight-Kamera",0x2460000005ac8507,30.00003000003,1,480,640,"""","""","""",0.65,0.65,0,0,"{""history"":[]}","""","""","""","""","""","2021-01-13 17:59:53",,"Mozilla/5.0 (Macintosh; Intel Mac OS X 10_13_6) AppleWebKit/605.1.15 (KHTML, like Gecko) Version/11.1.2 Safari/605.1.15",Macintosh,Safari,11.1.2,"OS X",10_13_6
4,1,null,"""","""","""","""",html-keyboard-response,24,194810,0.0-12.0-2.0-0.5,753,0,0,"Integrierte iSight-Kamera",0x2460000005ac8507,30.00003000003,1,480,640,"""",null,"""","""","""","""","""","""","""","""","""","""","""","2021-01-13 17:59:53",,"Mozilla/5.0 (Macintosh; Intel Mac OS X 10_13_6) AppleWebKit/605.1.15 (KHTML, like Gecko) Version/11.1.2 Safari/605.1.15",Macintosh,Safari,11.1.2,"OS X",10_13_6
4,1,"""","""","""",1280,800,eyetracking-calibration,25,201027,0.0-12.0-2.0-1.5,753,0,0,"Integrierte iSight-Kamera",0x2460000005ac8507,30.00003000003,1,480,640,"""","""","""",0.2,0.5,0,0,"{""history"":[]}","""","""","""","""","""","2021-01-13 17:59:53",,"Mozilla/5.0 (Macintosh; Intel Mac OS X 10_13_6) AppleWebKit/605.1.15 (KHTML, like Gecko) Version/11.1.2 Safari/605.1.15",Macintosh,Safari,11.1.2,"OS X",10_13_6
4,1,null,"""","""","""","""",html-keyboard-response,26,202530,0.0-12.0-2.0-0.6,753,0,0,"Integrierte iSight-Kamera",0x2460000005ac8507,30.00003000003,1,480,640,"""",null,"""","""","""","""","""","""","""","""","""","""","""","2021-01-13 17:59:53",,"Mozilla/5.0 (Macintosh; Intel Mac OS X 10_13_6) AppleWebKit/605.1.15 (KHTML, like Gecko) Version/11.1.2 Safari/605.1.15",Macintosh,Safari,11.1.2,"OS X",10_13_6
4,1,"""","""","""",1280,800,eyetracking-calibration,27,208005,0.0-12.0-2.0-1.6,753,0,0,"Integrierte iSight-Kamera",0x2460000005ac8507,30.00003000003,1,480,640,"""","""","""",0.5,0.5,0,0,"{""history"":[]}","""","""","""","""","""","2021-01-13 17:59:53",,"Mozilla/5.0 (Macintosh; Intel Mac OS X 10_13_6) AppleWebKit/605.1.15 (KHTML, like Gecko) Version/11.1.2 Safari/605.1.15",Macintosh,Safari,11.1.2,"OS X",10_13_6
4,1,null,"""","""","""","""",html-keyboard-response,28,209510,0.0-12.0-2.0-0.7,753,0,0,"Integrierte iSight-Kamera",0x2460000005ac8507,30.00003000003,1,480,640,"""",null,"""","""","""","""","""","""","""","""","""","""","""","2021-01-13 17:59:53",,"Mozilla/5.0 (Macintosh; Intel Mac OS X 10_13_6) AppleWebKit/605.1.15 (KHTML, like Gecko) Version/11.1.2 Safari/605.1.15",Macintosh,Safari,11.1.2,"OS X",10_13_6
4,1,"""","""","""",1280,800,eyetracking-calibration,29,214972,0.0-12.0-2.0-1.7,753,0,0,"Integrierte iSight-Kamera",0x2460000005ac8507,30.00003000003,1,480,640,"""","""","""",0.8,0.8,0,0,"{""history"":[]}","""","""","""","""","""","2021-01-13 17:59:53",,"Mozilla/5.0 (Macintosh; Intel Mac OS X 10_13_6) AppleWebKit/605.1.15 (KHTML, like Gecko) Version/11.1.2 Safari/605.1.15",Macintosh,Safari,11.1.2,"OS X",10_13_6
4,1,null,"""","""","""","""",html-keyboard-response,30,216478,0.0-12.0-2.0-0.8,753,0,0,"Integrierte iSight-Kamera",0x2460000005ac8507,30.00003000003,1,480,640,"""",null,"""","""","""","""","""","""","""","""","""","""","""","2021-01-13 17:59:53",,"Mozilla/5.0 (Macintosh; Intel Mac OS X 10_13_6) AppleWebKit/605.1.15 (KHTML, like Gecko) Version/11.1.2 Safari/605.1.15",Macintosh,Safari,11.1.2,"OS X",10_13_6
4,1,"""","""","""",1280,800,eyetracking-calibration,31,221951,0.0-12.0-2.0-1.8,753,0,0,"Integrierte iSight-Kamera",0x2460000005ac8507,30.00003000003,1,480,640,"""","""","""",0.2,0.8,0,0,"{""history"":[]}","""","""","""","""","""","2021-01-13 17:59:53",,"Mozilla/5.0 (Macintosh; Intel Mac OS X 10_13_6) AppleWebKit/605.1.15 (KHTML, like Gecko) Version/11.1.2 Safari/605.1.15",Macintosh,Safari,11.1.2,"OS X",10_13_6
4,1,null,"""","""","""","""",html-keyboard-response,32,223464,0.0-12.0-2.0-0.9,753,0,0,"Integrierte iSight-Kamera",0x2460000005ac8507,30.00003000003,1,480,640,"""",null,"""","""","""","""","""","""","""","""","""","""","""","2021-01-13 17:59:53",,"Mozilla/5.0 (Macintosh; Intel Mac OS X 10_13_6) AppleWebKit/605.1.15 (KHTML, like Gecko) Version/11.1.2 Safari/605.1.15",Macintosh,Safari,11.1.2,"OS X",10_13_6
4,1,"""","""","""",1280,800,eyetracking-calibration,33,229708,0.0-12.0-2.0-1.9,753,0,0,"Integrierte iSight-Kamera",0x2460000005ac8507,30.00003000003,1,480,640,"""","""","""",0.8,0.5,0,0,"{""history"":[]}","""","""","""","""","""","2021-01-13 17:59:53",,"Mozilla/5.0 (Macintosh; Intel Mac OS X 10_13_6) AppleWebKit/605.1.15 (KHTML, like Gecko) Version/11.1.2 Safari/605.1.15",Macintosh,Safari,11.1.2,"OS X",10_13_6
4,1,null,"""","""","""","""",html-keyboard-response,34,231214,0.0-12.0-2.0-0.10,753,0,0,"Integrierte iSight-Kamera",0x2460000005ac8507,30.00003000003,1,480,640,"""",null,"""","""","""","""","""","""","""","""","""","""","""","2021-01-13 17:59:53",,"Mozilla/5.0 (Macintosh; Intel Mac OS X 10_13_6) AppleWebKit/605.1.15 (KHTML, like Gecko) Version/11.1.2 Safari/605.1.15",Macintosh,Safari,11.1.2,"OS X",10_13_6
4,1,"""","""","""",1280,800,eyetracking-calibration,35,236653,0.0-12.0-2.0-1.10,753,0,0,"Integrierte iSight-Kamera",0x2460000005ac8507,30.00003000003,1,480,640,"""","""","""",0.65,0.35,0,0,"{""history"":[]}","""","""","""","""","""","2021-01-13 17:59:53",,"Mozilla/5.0 (Macintosh; Intel Mac OS X 10_13_6) AppleWebKit/605.1.15 (KHTML, like Gecko) Version/11.1.2 Safari/605.1.15",Macintosh,Safari,11.1.2,"OS X",10_13_6
4,1,null,"""","""","""","""",html-keyboard-response,36,238160,0.0-12.0-2.0-0.11,753,0,0,"Integrierte iSight-Kamera",0x2460000005ac8507,30.00003000003,1,480,640,"""",null,"""","""","""","""","""","""","""","""","""","""","""","2021-01-13 17:59:53",,"Mozilla/5.0 (Macintosh; Intel Mac OS X 10_13_6) AppleWebKit/605.1.15 (KHTML, like Gecko) Version/11.1.2 Safari/605.1.15",Macintosh,Safari,11.1.2,"OS X",10_13_6
4,1,"""","""","""",1280,800,eyetracking-calibration,37,243627,0.0-12.0-2.0-1.11,753,0,0,"Integrierte iSight-Kamera",0x2460000005ac8507,30.00003000003,1,480,640,"""","""","""",0.5,0.8,0,0,"{""history"":[]}","""","""","""","""","""","2021-01-13 17:59:53",,"Mozilla/5.0 (Macintosh; Intel Mac OS X 10_13_6) AppleWebKit/605.1.15 (KHTML, like Gecko) Version/11.1.2 Safari/605.1.15",Macintosh,Safari,11.1.2,"OS X",10_13_6
4,1,null,"<div style=""font-size:30px;""><p><strong>30%</strong><br><br>Calibration complete</p></div>","""","""","""",html-keyboard-response,38,245135,0.0-12.0-2.0-0.12,753,0,0,"Integrierte iSight-Kamera",0x2460000005ac8507,30.00003000003,1,480,640,"""",null,"""","""","""","""","""","""","""","""","""","""","""","2021-01-13 17:59:53",,"Mozilla/5.0 (Macintosh; Intel Mac OS X 10_13_6) AppleWebKit/605.1.15 (KHTML, like Gecko) Version/11.1.2 Safari/605.1.15",Macintosh,Safari,11.1.2,"OS X",10_13_6
4,1,"""","""","""",1280,800,eyetracking-calibration,39,251321,0.0-12.0-2.0-1.12,753,0,0,"Integrierte iSight-Kamera",0x2460000005ac8507,30.00003000003,1,480,640,"""","""","""",0.35,0.35,0,0,"{""history"":[]}","""","""","""","""","""","2021-01-13 17:59:53",,"Mozilla/5.0 (Macintosh; Intel Mac OS X 10_13_6) AppleWebKit/605.1.15 (KHTML, like Gecko) Version/11.1.2 Safari/605.1.15",Macintosh,Safari,11.1.2,"OS X",10_13_6
4,1,null,"""","""","""","""",html-keyboard-response,40,252827,0.0-12.0-2.0-0.13,753,0,0,"Integrierte iSight-Kamera",0x2460000005ac8507,30.00003000003,1,480,640,"""",null,"""","""","""","""","""","""","""","""","""","""","""","2021-01-13 17:59:53",,"Mozilla/5.0 (Macintosh; Intel Mac OS X 10_13_6) AppleWebKit/605.1.15 (KHTML, like Gecko) Version/11.1.2 Safari/605.1.15",Macintosh,Safari,11.1.2,"OS X",10_13_6
4,1,"""","""","""",1280,800,eyetracking-calibration,41,259021,0.0-12.0-2.0-1.13,753,0,0,"Integrierte iSight-Kamera",0x2460000005ac8507,30.00003000003,1,480,640,"""","""","""",0.2,0.5,0,0,"{""history"":[]}","""","""","""","""","""","2021-01-13 17:59:53",,"Mozilla/5.0 (Macintosh; Intel Mac OS X 10_13_6) AppleWebKit/605.1.15 (KHTML, like Gecko) Version/11.1.2 Safari/605.1.15",Macintosh,Safari,11.1.2,"OS X",10_13_6
4,1,null,"""","""","""","""",html-keyboard-response,42,260528,0.0-12.0-2.0-0.14,753,0,0,"Integrierte iSight-Kamera",0x2460000005ac8507,30.00003000003,1,480,640,"""",null,"""","""","""","""","""","""","""","""","""","""","""","2021-01-13 17:59:53",,"Mozilla/5.0 (Macintosh; Intel Mac OS X 10_13_6) AppleWebKit/605.1.15 (KHTML, like Gecko) Version/11.1.2 Safari/605.1.15",Macintosh,Safari,11.1.2,"OS X",10_13_6
4,1,"""","""","""",1280,800,eyetracking-calibration,43,265973,0.0-12.0-2.0-1.14,753,0,0,"Integrierte iSight-Kamera",0x2460000005ac8507,30.00003000003,1,480,640,"""","""","""",0.2,0.2,0,0,"{""history"":[]}","""","""","""","""","""","2021-01-13 17:59:53",,"Mozilla/5.0 (Macintosh; Intel Mac OS X 10_13_6) AppleWebKit/605.1.15 (KHTML, like Gecko) Version/11.1.2 Safari/605.1.15",Macintosh,Safari,11.1.2,"OS X",10_13_6
4,1,null,"""","""","""","""",html-keyboard-response,44,267477,0.0-12.0-2.0-0.15,753,0,0,"Integrierte iSight-Kamera",0x2460000005ac8507,30.00003000003,1,480,640,"""",null,"""","""","""","""","""","""","""","""","""","""","""","2021-01-13 17:59:53",,"Mozilla/5.0 (Macintosh; Intel Mac OS X 10_13_6) AppleWebKit/605.1.15 (KHTML, like Gecko) Version/11.1.2 Safari/605.1.15",Macintosh,Safari,11.1.2,"OS X",10_13_6
4,1,"""","""","""",1280,800,eyetracking-calibration,45,274470,0.0-12.0-2.0-1.15,753,0,0,"Integrierte iSight-Kamera",0x2460000005ac8507,30.00003000003,1,480,640,"""","""","""",0.8,0.5,0,0,"{""history"":[]}","""","""","""","""","""","2021-01-13 17:59:53",,"Mozilla/5.0 (Macintosh; Intel Mac OS X 10_13_6) AppleWebKit/605.1.15 (KHTML, like Gecko) Version/11.1.2 Safari/605.1.15",Macintosh,Safari,11.1.2,"OS X",10_13_6
4,1,null,"""","""","""","""",html-keyboard-response,46,275977,0.0-12.0-2.0-0.16,753,0,0,"Integrierte iSight-Kamera",0x2460000005ac8507,30.00003000003,1,480,640,"""",null,"""","""","""","""","""","""","""","""","""","""","""","2021-01-13 17:59:53",,"Mozilla/5.0 (Macintosh; Intel Mac OS X 10_13_6) AppleWebKit/605.1.15 (KHTML, like Gecko) Version/11.1.2 Safari/605.1.15",Macintosh,Safari,11.1.2,"OS X",10_13_6
4,1,"""","""","""",1280,800,eyetracking-calibration,47,281458,0.0-12.0-2.0-1.16,753,0,0,"Integrierte iSight-Kamera",0x2460000005ac8507,30.00003000003,1,480,640,"""","""","""",0.5,0.5,0,0,"{""history"":[]}","""","""","""","""","""","2021-01-13 17:59:53",,"Mozilla/5.0 (Macintosh; Intel Mac OS X 10_13_6) AppleWebKit/605.1.15 (KHTML, like Gecko) Version/11.1.2 Safari/605.1.15",Macintosh,Safari,11.1.2,"OS X",10_13_6
4,1,null,"""","""","""","""",html-keyboard-response,48,282963,0.0-12.0-2.0-0.17,753,0,0,"Integrierte iSight-Kamera",0x2460000005ac8507,30.00003000003,1,480,640,"""",null,"""","""","""","""","""","""","""","""","""","""","""","2021-01-13 17:59:53",,"Mozilla/5.0 (Macintosh; Intel Mac OS X 10_13_6) AppleWebKit/605.1.15 (KHTML, like Gecko) Version/11.1.2 Safari/605.1.15",Macintosh,Safari,11.1.2,"OS X",10_13_6
4,1,"""","""","""",1280,800,eyetracking-calibration,49,288640,0.0-12.0-2.0-1.17,753,0,0,"Integrierte iSight-Kamera",0x2460000005ac8507,30.00003000003,1,480,640,"""","""","""",0.2,0.8,0,0,"{""history"":[]}","""","""","""","""","""","2021-01-13 17:59:53",,"Mozilla/5.0 (Macintosh; Intel Mac OS X 10_13_6) AppleWebKit/605.1.15 (KHTML, like Gecko) Version/11.1.2 Safari/605.1.15",Macintosh,Safari,11.1.2,"OS X",10_13_6
4,1,null,"""","""","""","""",html-keyboard-response,50,290147,0.0-12.0-2.0-0.18,753,0,0,"Integrierte iSight-Kamera",0x2460000005ac8507,30.00003000003,1,480,640,"""",null,"""","""","""","""","""","""","""","""","""","""","""","2021-01-13 17:59:53",,"Mozilla/5.0 (Macintosh; Intel Mac OS X 10_13_6) AppleWebKit/605.1.15 (KHTML, like Gecko) Version/11.1.2 Safari/605.1.15",Macintosh,Safari,11.1.2,"OS X",10_13_6
4,1,"""","""","""",1280,800,eyetracking-calibration,51,295681,0.0-12.0-2.0-1.18,753,0,0,"Integrierte iSight-Kamera",0x2460000005ac8507,30.00003000003,1,480,640,"""","""","""",0.35,0.35,0,0,"{""history"":[]}","""","""","""","""","""","2021-01-13 17:59:53",,"Mozilla/5.0 (Macintosh; Intel Mac OS X 10_13_6) AppleWebKit/605.1.15 (KHTML, like Gecko) Version/11.1.2 Safari/605.1.15",Macintosh,Safari,11.1.2,"OS X",10_13_6
4,1,null,"""","""","""","""",html-keyboard-response,52,297187,0.0-12.0-2.0-0.19,753,0,0,"Integrierte iSight-Kamera",0x2460000005ac8507,30.00003000003,1,480,640,"""",null,"""","""","""","""","""","""","""","""","""","""","""","2021-01-13 17:59:53",,"Mozilla/5.0 (Macintosh; Intel Mac OS X 10_13_6) AppleWebKit/605.1.15 (KHTML, like Gecko) Version/11.1.2 Safari/605.1.15",Macintosh,Safari,11.1.2,"OS X",10_13_6
4,1,"""","""","""",1280,800,eyetracking-calibration,53,303432,0.0-12.0-2.0-1.19,753,0,0,"Integrierte iSight-Kamera",0x2460000005ac8507,30.00003000003,1,480,640,"""","""","""",0.8,0.8,0,0,"{""history"":[]}","""","""","""","""","""","2021-01-13 17:59:53",,"Mozilla/5.0 (Macintosh; Intel Mac OS X 10_13_6) AppleWebKit/605.1.15 (KHTML, like Gecko) Version/11.1.2 Safari/605.1.15",Macintosh,Safari,11.1.2,"OS X",10_13_6
4,1,null,"""","""","""","""",html-keyboard-response,54,304936,0.0-12.0-2.0-0.20,753,0,0,"Integrierte iSight-Kamera",0x2460000005ac8507,30.00003000003,1,480,640,"""",null,"""","""","""","""","""","""","""","""","""","""","""","2021-01-13 17:59:53",,"Mozilla/5.0 (Macintosh; Intel Mac OS X 10_13_6) AppleWebKit/605.1.15 (KHTML, like Gecko) Version/11.1.2 Safari/605.1.15",Macintosh,Safari,11.1.2,"OS X",10_13_6
4,1,"""","""","""",1280,800,eyetracking-calibration,55,310380,0.0-12.0-2.0-1.20,753,0,0,"Integrierte iSight-Kamera",0x2460000005ac8507,30.00003000003,1,480,640,"""","""","""",0.65,0.65,0,0,"{""history"":[]}","""","""","""","""","""","2021-01-13 17:59:53",,"Mozilla/5.0 (Macintosh; Intel Mac OS X 10_13_6) AppleWebKit/605.1.15 (KHTML, like Gecko) Version/11.1.2 Safari/605.1.15",Macintosh,Safari,11.1.2,"OS X",10_13_6
4,1,null,"""","""","""","""",html-keyboard-response,56,311887,0.0-12.0-2.0-0.21,753,0,0,"Integrierte iSight-Kamera",0x2460000005ac8507,30.00003000003,1,480,640,"""",null,"""","""","""","""","""","""","""","""","""","""","""","2021-01-13 17:59:53",,"Mozilla/5.0 (Macintosh; Intel Mac OS X 10_13_6) AppleWebKit/605.1.15 (KHTML, like Gecko) Version/11.1.2 Safari/605.1.15",Macintosh,Safari,11.1.2,"OS X",10_13_6
4,1,"""","""","""",1280,800,eyetracking-calibration,57,317350,0.0-12.0-2.0-1.21,753,0,0,"Integrierte iSight-Kamera",0x2460000005ac8507,30.00003000003,1,480,640,"""","""","""",0.5,0.8,0,0,"{""history"":[]}","""","""","""","""","""","2021-01-13 17:59:53",,"Mozilla/5.0 (Macintosh; Intel Mac OS X 10_13_6) AppleWebKit/605.1.15 (KHTML, like Gecko) Version/11.1.2 Safari/605.1.15",Macintosh,Safari,11.1.2,"OS X",10_13_6
4,1,null,"""","""","""","""",html-keyboard-response,58,318857,0.0-12.0-2.0-0.22,753,0,0,"Integrierte iSight-Kamera",0x2460000005ac8507,30.00003000003,1,480,640,"""",null,"""","""","""","""","""","""","""","""","""","""","""","2021-01-13 17:59:53",,"Mozilla/5.0 (Macintosh; Intel Mac OS X 10_13_6) AppleWebKit/605.1.15 (KHTML, like Gecko) Version/11.1.2 Safari/605.1.15",Macintosh,Safari,11.1.2,"OS X",10_13_6
4,1,"""","""","""",1280,800,eyetracking-calibration,59,324320,0.0-12.0-2.0-1.22,753,0,0,"Integrierte iSight-Kamera",0x2460000005ac8507,30.00003000003,1,480,640,"""","""","""",0.35,0.65,0,0,"{""history"":[]}","""","""","""","""","""","2021-01-13 17:59:53",,"Mozilla/5.0 (Macintosh; Intel Mac OS X 10_13_6) AppleWebKit/605.1.15 (KHTML, like Gecko) Version/11.1.2 Safari/605.1.15",Macintosh,Safari,11.1.2,"OS X",10_13_6
4,1,null,"""","""","""","""",html-keyboard-response,60,325825,0.0-12.0-2.0-0.23,753,0,0,"Integrierte iSight-Kamera",0x2460000005ac8507,30.00003000003,1,480,640,"""",null,"""","""","""","""","""","""","""","""","""","""","""","2021-01-13 17:59:53",,"Mozilla/5.0 (Macintosh; Intel Mac OS X 10_13_6) AppleWebKit/605.1.15 (KHTML, like Gecko) Version/11.1.2 Safari/605.1.15",Macintosh,Safari,11.1.2,"OS X",10_13_6
4,1,"""","""","""",1280,800,eyetracking-calibration,61,332091,0.0-12.0-2.0-1.23,753,0,0,"Integrierte iSight-Kamera",0x2460000005ac8507,30.00003000003,1,480,640,"""","""","""",0.65,0.35,0,0,"{""history"":[]}","""","""","""","""","""","2021-01-13 17:59:53",,"Mozilla/5.0 (Macintosh; Intel Mac OS X 10_13_6) AppleWebKit/605.1.15 (KHTML, like Gecko) Version/11.1.2 Safari/605.1.15",Macintosh,Safari,11.1.2,"OS X",10_13_6
4,1,null,"""","""","""","""",html-keyboard-response,62,333597,0.0-12.0-2.0-0.24,753,0,0,"Integrierte iSight-Kamera",0x2460000005ac8507,30.00003000003,1,480,640,"""",null,"""","""","""","""","""","""","""","""","""","""","""","2021-01-13 17:59:53",,"Mozilla/5.0 (Macintosh; Intel Mac OS X 10_13_6) AppleWebKit/605.1.15 (KHTML, like Gecko) Version/11.1.2 Safari/605.1.15",Macintosh,Safari,11.1.2,"OS X",10_13_6
4,1,"""","""","""",1280,800,eyetracking-calibration,63,339043,0.0-12.0-2.0-1.24,753,0,0,"Integrierte iSight-Kamera",0x2460000005ac8507,30.00003000003,1,480,640,"""","""","""",0.8,0.2,0,0,"{""history"":[]}","""","""","""","""","""","2021-01-13 17:59:53",,"Mozilla/5.0 (Macintosh; Intel Mac OS X 10_13_6) AppleWebKit/605.1.15 (KHTML, like Gecko) Version/11.1.2 Safari/605.1.15",Macintosh,Safari,11.1.2,"OS X",10_13_6
4,1,null,"<div style=""font-size:30px;""><p><strong>60%</strong><br><br>Calibration complete</p></div>","""","""","""",html-keyboard-response,64,340549,0.0-12.0-2.0-0.25,753,0,0,"Integrierte iSight-Kamera",0x2460000005ac8507,30.00003000003,1,480,640,"""",null,"""","""","""","""","""","""","""","""","""","""","""","2021-01-13 17:59:53",,"Mozilla/5.0 (Macintosh; Intel Mac OS X 10_13_6) AppleWebKit/605.1.15 (KHTML, like Gecko) Version/11.1.2 Safari/605.1.15",Macintosh,Safari,11.1.2,"OS X",10_13_6
4,1,"""","""","""",1280,800,eyetracking-calibration,65,346774,0.0-12.0-2.0-1.25,753,0,0,"Integrierte iSight-Kamera",0x2460000005ac8507,30.00003000003,1,480,640,"""","""","""",0.5,0.2,0,0,"{""history"":[]}","""","""","""","""","""","2021-01-13 17:59:53",,"Mozilla/5.0 (Macintosh; Intel Mac OS X 10_13_6) AppleWebKit/605.1.15 (KHTML, like Gecko) Version/11.1.2 Safari/605.1.15",Macintosh,Safari,11.1.2,"OS X",10_13_6
4,1,null,"""","""","""","""",html-keyboard-response,66,348280,0.0-12.0-2.0-0.26,753,0,0,"Integrierte iSight-Kamera",0x2460000005ac8507,30.00003000003,1,480,640,"""",null,"""","""","""","""","""","""","""","""","""","""","""","2021-01-13 17:59:53",,"Mozilla/5.0 (Macintosh; Intel Mac OS X 10_13_6) AppleWebKit/605.1.15 (KHTML, like Gecko) Version/11.1.2 Safari/605.1.15",Macintosh,Safari,11.1.2,"OS X",10_13_6
4,1,"""","""","""",1280,800,eyetracking-calibration,67,354506,0.0-12.0-2.0-1.26,753,0,0,"Integrierte iSight-Kamera",0x2460000005ac8507,30.00003000003,1,480,640,"""","""","""",0.2,0.5,0,0,"{""history"":[]}","""","""","""","""","""","2021-01-13 17:59:53",,"Mozilla/5.0 (Macintosh; Intel Mac OS X 10_13_6) AppleWebKit/605.1.15 (KHTML, like Gecko) Version/11.1.2 Safari/605.1.15",Macintosh,Safari,11.1.2,"OS X",10_13_6
4,1,null,"""","""","""","""",html-keyboard-response,68,356011,0.0-12.0-2.0-0.27,753,0,0,"Integrierte iSight-Kamera",0x2460000005ac8507,30.00003000003,1,480,640,"""",null,"""","""","""","""","""","""","""","""","""","""","""","2021-01-13 17:59:53",,"Mozilla/5.0 (Macintosh; Intel Mac OS X 10_13_6) AppleWebKit/605.1.15 (KHTML, like Gecko) Version/11.1.2 Safari/605.1.15",Macintosh,Safari,11.1.2,"OS X",10_13_6
4,1,"""","""","""",1280,800,eyetracking-calibration,69,361509,0.0-12.0-2.0-1.27,753,0,0,"Integrierte iSight-Kamera",0x2460000005ac8507,30.00003000003,1,480,640,"""","""","""",0.2,0.2,0,0,"{""history"":[]}","""","""","""","""","""","2021-01-13 17:59:53",,"Mozilla/5.0 (Macintosh; Intel Mac OS X 10_13_6) AppleWebKit/605.1.15 (KHTML, like Gecko) Version/11.1.2 Safari/605.1.15",Macintosh,Safari,11.1.2,"OS X",10_13_6
4,1,null,"""","""","""","""",html-keyboard-response,70,363016,0.0-12.0-2.0-0.28,753,0,0,"Integrierte iSight-Kamera",0x2460000005ac8507,30.00003000003,1,480,640,"""",null,"""","""","""","""","""","""","""","""","""","""","""","2021-01-13 17:59:53",,"Mozilla/5.0 (Macintosh; Intel Mac OS X 10_13_6) AppleWebKit/605.1.15 (KHTML, like Gecko) Version/11.1.2 Safari/605.1.15",Macintosh,Safari,11.1.2,"OS X",10_13_6
4,1,"""","""","""",1280,800,eyetracking-calibration,71,370034,0.0-12.0-2.0-1.28,753,0,0,"Integrierte iSight-Kamera",0x2460000005ac8507,30.00003000003,1,480,640,"""","""","""",0.8,0.8,0,0,"{""history"":[]}","""","""","""","""","""","2021-01-13 17:59:53",,"Mozilla/5.0 (Macintosh; Intel Mac OS X 10_13_6) AppleWebKit/605.1.15 (KHTML, like Gecko) Version/11.1.2 Safari/605.1.15",Macintosh,Safari,11.1.2,"OS X",10_13_6
4,1,null,"""","""","""","""",html-keyboard-response,72,371541,0.0-12.0-2.0-0.29,753,0,0,"Integrierte iSight-Kamera",0x2460000005ac8507,30.00003000003,1,480,640,"""",null,"""","""","""","""","""","""","""","""","""","""","""","2021-01-13 17:59:53",,"Mozilla/5.0 (Macintosh; Intel Mac OS X 10_13_6) AppleWebKit/605.1.15 (KHTML, like Gecko) Version/11.1.2 Safari/605.1.15",Macintosh,Safari,11.1.2,"OS X",10_13_6
4,1,"""","""","""",1280,800,eyetracking-calibration,73,377766,0.0-12.0-2.0-1.29,753,0,0,"Integrierte iSight-Kamera",0x2460000005ac8507,30.00003000003,1,480,640,"""","""","""",0.5,0.5,0,0,"{""history"":[]}","""","""","""","""","""","2021-01-13 17:59:53",,"Mozilla/5.0 (Macintosh; Intel Mac OS X 10_13_6) AppleWebKit/605.1.15 (KHTML, like Gecko) Version/11.1.2 Safari/605.1.15",Macintosh,Safari,11.1.2,"OS X",10_13_6
4,1,null,"""","""","""","""",html-keyboard-response,74,379275,0.0-12.0-2.0-0.30,753,0,0,"Integrierte iSight-Kamera",0x2460000005ac8507,30.00003000003,1,480,640,"""",null,"""","""","""","""","""","""","""","""","""","""","""","2021-01-13 17:59:53",,"Mozilla/5.0 (Macintosh; Intel Mac OS X 10_13_6) AppleWebKit/605.1.15 (KHTML, like Gecko) Version/11.1.2 Safari/605.1.15",Macintosh,Safari,11.1.2,"OS X",10_13_6
4,1,"""","""","""",1280,800,eyetracking-calibration,75,385489,0.0-12.0-2.0-1.30,753,0,0,"Integrierte iSight-Kamera",0x2460000005ac8507,30.00003000003,1,480,640,"""","""","""",0.35,0.35,0,0,"{""history"":[]}","""","""","""","""","""","2021-01-13 17:59:53",,"Mozilla/5.0 (Macintosh; Intel Mac OS X 10_13_6) AppleWebKit/605.1.15 (KHTML, like Gecko) Version/11.1.2 Safari/605.1.15",Macintosh,Safari,11.1.2,"OS X",10_13_6
4,1,null,"""","""","""","""",html-keyboard-response,76,386998,0.0-12.0-2.0-0.31,753,0,0,"Integrierte iSight-Kamera",0x2460000005ac8507,30.00003000003,1,480,640,"""",null,"""","""","""","""","""","""","""","""","""","""","""","2021-01-13 17:59:53",,"Mozilla/5.0 (Macintosh; Intel Mac OS X 10_13_6) AppleWebKit/605.1.15 (KHTML, like Gecko) Version/11.1.2 Safari/605.1.15",Macintosh,Safari,11.1.2,"OS X",10_13_6
4,1,"""","""","""",1280,800,eyetracking-calibration,77,393196,0.0-12.0-2.0-1.31,753,0,0,"Integrierte iSight-Kamera",0x2460000005ac8507,30.00003000003,1,480,640,"""","""","""",0.8,0.5,0,0,"{""history"":[]}","""","""","""","""","""","2021-01-13 17:59:53",,"Mozilla/5.0 (Macintosh; Intel Mac OS X 10_13_6) AppleWebKit/605.1.15 (KHTML, like Gecko) Version/11.1.2 Safari/605.1.15",Macintosh,Safari,11.1.2,"OS X",10_13_6
4,1,null,"""","""","""","""",html-keyboard-response,78,394705,0.0-12.0-2.0-0.32,753,0,0,"Integrierte iSight-Kamera",0x2460000005ac8507,30.00003000003,1,480,640,"""",null,"""","""","""","""","""","""","""","""","""","""","""","2021-01-13 17:59:53",,"Mozilla/5.0 (Macintosh; Intel Mac OS X 10_13_6) AppleWebKit/605.1.15 (KHTML, like Gecko) Version/11.1.2 Safari/605.1.15",Macintosh,Safari,11.1.2,"OS X",10_13_6
4,1,"""","""","""",1280,800,eyetracking-calibration,79,400918,0.0-12.0-2.0-1.32,753,0,0,"Integrierte iSight-Kamera",0x2460000005ac8507,30.00003000003,1,480,640,"""","""","""",0.2,0.8,0,0,"{""history"":[]}","""","""","""","""","""","2021-01-13 17:59:53",,"Mozilla/5.0 (Macintosh; Intel Mac OS X 10_13_6) AppleWebKit/605.1.15 (KHTML, like Gecko) Version/11.1.2 Safari/605.1.15",Macintosh,Safari,11.1.2,"OS X",10_13_6
4,1,null,"""","""","""","""",html-keyboard-response,80,402425,0.0-12.0-2.0-0.33,753,0,0,"Integrierte iSight-Kamera",0x2460000005ac8507,30.00003000003,1,480,640,"""",null,"""","""","""","""","""","""","""","""","""","""","""","2021-01-13 17:59:53",,"Mozilla/5.0 (Macintosh; Intel Mac OS X 10_13_6) AppleWebKit/605.1.15 (KHTML, like Gecko) Version/11.1.2 Safari/605.1.15",Macintosh,Safari,11.1.2,"OS X",10_13_6
4,1,"""","""","""",1280,800,eyetracking-calibration,81,408674,0.0-12.0-2.0-1.33,753,0,0,"Integrierte iSight-Kamera",0x2460000005ac8507,30.00003000003,1,480,640,"""","""","""",0.8,0.2,0,0,"{""history"":[]}","""","""","""","""","""","2021-01-13 17:59:53",,"Mozilla/5.0 (Macintosh; Intel Mac OS X 10_13_6) AppleWebKit/605.1.15 (KHTML, like Gecko) Version/11.1.2 Safari/605.1.15",Macintosh,Safari,11.1.2,"OS X",10_13_6
4,1,null,"""","""","""","""",html-keyboard-response,82,410180,0.0-12.0-2.0-0.34,753,0,0,"Integrierte iSight-Kamera",0x2460000005ac8507,30.00003000003,1,480,640,"""",null,"""","""","""","""","""","""","""","""","""","""","""","2021-01-13 17:59:53",,"Mozilla/5.0 (Macintosh; Intel Mac OS X 10_13_6) AppleWebKit/605.1.15 (KHTML, like Gecko) Version/11.1.2 Safari/605.1.15",Macintosh,Safari,11.1.2,"OS X",10_13_6
4,1,"""","""","""",1280,800,eyetracking-calibration,83,415632,0.0-12.0-2.0-1.34,753,0,0,"Integrierte iSight-Kamera",0x2460000005ac8507,30.00003000003,1,480,640,"""","""","""",0.5,0.2,0,0,"{""history"":[]}","""","""","""","""","""","2021-01-13 17:59:53",,"Mozilla/5.0 (Macintosh; Intel Mac OS X 10_13_6) AppleWebKit/605.1.15 (KHTML, like Gecko) Version/11.1.2 Safari/605.1.15",Macintosh,Safari,11.1.2,"OS X",10_13_6
4,1,null,"""","""","""","""",html-keyboard-response,84,417137,0.0-12.0-2.0-0.35,753,0,0,"Integrierte iSight-Kamera",0x2460000005ac8507,30.00003000003,1,480,640,"""",null,"""","""","""","""","""","""","""","""","""","""","""","2021-01-13 17:59:53",,"Mozilla/5.0 (Macintosh; Intel Mac OS X 10_13_6) AppleWebKit/605.1.15 (KHTML, like Gecko) Version/11.1.2 Safari/605.1.15",Macintosh,Safari,11.1.2,"OS X",10_13_6
4,1,"""","""","""",1280,800,eyetracking-calibration,85,423368,0.0-12.0-2.0-1.35,753,0,0,"Integrierte iSight-Kamera",0x2460000005ac8507,30.00003000003,1,480,640,"""","""","""",0.35,0.65,0,0,"{""history"":[]}","""","""","""","""","""","2021-01-13 17:59:53",,"Mozilla/5.0 (Macintosh; Intel Mac OS X 10_13_6) AppleWebKit/605.1.15 (KHTML, like Gecko) Version/11.1.2 Safari/605.1.15",Macintosh,Safari,11.1.2,"OS X",10_13_6
4,1,null,"""","""","""","""",html-keyboard-response,86,424875,0.0-12.0-2.0-0.36,753,0,0,"Integrierte iSight-Kamera",0x2460000005ac8507,30.00003000003,1,480,640,"""",null,"""","""","""","""","""","""","""","""","""","""","""","2021-01-13 17:59:53",,"Mozilla/5.0 (Macintosh; Intel Mac OS X 10_13_6) AppleWebKit/605.1.15 (KHTML, like Gecko) Version/11.1.2 Safari/605.1.15",Macintosh,Safari,11.1.2,"OS X",10_13_6
4,1,"""","""","""",1280,800,eyetracking-calibration,87,430333,0.0-12.0-2.0-1.36,753,0,0,"Integrierte iSight-Kamera",0x2460000005ac8507,30.00003000003,1,480,640,"""","""","""",0.5,0.8,0,0,"{""history"":[]}","""","""","""","""","""","2021-01-13 17:59:53",,"Mozilla/5.0 (Macintosh; Intel Mac OS X 10_13_6) AppleWebKit/605.1.15 (KHTML, like Gecko) Version/11.1.2 Safari/605.1.15",Macintosh,Safari,11.1.2,"OS X",10_13_6
4,1,null,"""","""","""","""",html-keyboard-response,88,431839,0.0-12.0-2.0-0.37,753,0,0,"Integrierte iSight-Kamera",0x2460000005ac8507,30.00003000003,1,480,640,"""",null,"""","""","""","""","""","""","""","""","""","""","""","2021-01-13 17:59:53",,"Mozilla/5.0 (Macintosh; Intel Mac OS X 10_13_6) AppleWebKit/605.1.15 (KHTML, like Gecko) Version/11.1.2 Safari/605.1.15",Macintosh,Safari,11.1.2,"OS X",10_13_6
4,1,"""","""","""",1280,800,eyetracking-calibration,89,438078,0.0-12.0-2.0-1.37,753,0,0,"Integrierte iSight-Kamera",0x2460000005ac8507,30.00003000003,1,480,640,"""","""","""",0.65,0.35,0,0,"{""history"":[]}","""","""","""","""","""","2021-01-13 17:59:53",,"Mozilla/5.0 (Macintosh; Intel Mac OS X 10_13_6) AppleWebKit/605.1.15 (KHTML, like Gecko) Version/11.1.2 Safari/605.1.15",Macintosh,Safari,11.1.2,"OS X",10_13_6
4,1,null,"""","""","""","""",html-keyboard-response,90,439585,0.0-12.0-2.0-0.38,753,0,0,"Integrierte iSight-Kamera",0x2460000005ac8507,30.00003000003,1,480,640,"""",null,"""","""","""","""","""","""","""","""","""","""","""","2021-01-13 17:59:53",,"Mozilla/5.0 (Macintosh; Intel Mac OS X 10_13_6) AppleWebKit/605.1.15 (KHTML, like Gecko) Version/11.1.2 Safari/605.1.15",Macintosh,Safari,11.1.2,"OS X",10_13_6
4,1,"""","""","""",1280,800,eyetracking-calibration,91,445834,0.0-12.0-2.0-1.38,753,0,0,"Integrierte iSight-Kamera",0x2460000005ac8507,30.00003000003,1,480,640,"""","""","""",0.65,0.65,0,0,"{""history"":[]}","""","""","""","""","""","2021-01-13 17:59:53",,"Mozilla/5.0 (Macintosh; Intel Mac OS X 10_13_6) AppleWebKit/605.1.15 (KHTML, like Gecko) Version/11.1.2 Safari/605.1.15",Macintosh,Safari,11.1.2,"OS X",10_13_6
4,1,null,"""","""","""","""",html-keyboard-response,92,448852,0.0-12.0-3.0,753,0,0,"Integrierte iSight-Kamera",0x2460000005ac8507,30.00003000003,1,480,640,"""",null,"""","""","""","""","""","""","""","""","""","""","""","2021-01-13 17:59:53",,"Mozilla/5.0 (Macintosh; Intel Mac OS X 10_13_6) AppleWebKit/605.1.15 (KHTML, like Gecko) Version/11.1.2 Safari/605.1.15",Macintosh,Safari,11.1.2,"OS X",10_13_6
4,1,null,"""","""","""","""",html-keyboard-response,93,448955,0.0-12.0-4.0,753,0,0,"Integrierte iSight-Kamera",0x2460000005ac8507,30.00003000003,1,480,640,"""",null,"""","""","""","""","""","""","""","""","""","""","""","2021-01-13 17:59:53",,"Mozilla/5.0 (Macintosh; Intel Mac OS X 10_13_6) AppleWebKit/605.1.15 (KHTML, like Gecko) Version/11.1.2 Safari/605.1.15",Macintosh,Safari,11.1.2,"OS X",10_13_6
4,1,null,"""","""","""","""",html-keyboard-response,94,449065,0.0-12.0-5.0,753,0,0,"Integrierte iSight-Kamera",0x2460000005ac8507,30.00003000003,1,480,640,"""",null,"""","""","""","""","""","""","""","""","""","""","""","2021-01-13 17:59:53",,"Mozilla/5.0 (Macintosh; Intel Mac OS X 10_13_6) AppleWebKit/605.1.15 (KHTML, like Gecko) Version/11.1.2 Safari/605.1.15",Macintosh,Safari,11.1.2,"OS X",10_13_6
4,1,3548,"<div style=""text-align: center; position: fixed; top: 40%; left: 10%; width: 80%;""><p style='font-size: 30px;'><strong>Don't move! </strong><br></p><p style='font-size: 18px;'>Keep your head in the instructed position for the next task. </p><br><p>Press Space to continue </p>","""","""","""",html-keyboard-response,95,452614,0.0-13.0,753,0,0,"Integrierte iSight-Kamera",0x2460000005ac8507,30.00003000003,1,480,640,"""",32,"""","""","""","""","""","""","""","""","""","""","""","2021-01-13 17:59:53",,"Mozilla/5.0 (Macintosh; Intel Mac OS X 10_13_6) AppleWebKit/605.1.15 (KHTML, like Gecko) Version/11.1.2 Safari/605.1.15",Macintosh,Safari,11.1.2,"OS X",10_13_6
4,1,1064,"<div style=""text-align: center; position: fixed; top: 35%; left: 10%; width: 80%;  font-size: 60px;""><p><strong>Task 1 </strong></p><p style='font-size: 18px;'>Press Space to continue</p></div>","""","""","""",html-keyboard-response,96,453692,0.0-14.0,753,0,0,"Integrierte iSight-Kamera",0x2460000005ac8507,30.00003000003,1,480,640,"""",32,"""","""","""","""","""","""","""","""","""","""","""","2021-01-13 17:59:53",,"Mozilla/5.0 (Macintosh; Intel Mac OS X 10_13_6) AppleWebKit/605.1.15 (KHTML, like Gecko) Version/11.1.2 Safari/605.1.15",Macintosh,Safari,11.1.2,"OS X",10_13_6
4,1,11916,"<div style=""text-align: center; position: fixed; top: 40%; left: 10%; width: 80%;""><p>For measurement purposes, <strong>dots</strong> (9 in total) will be appearing on the next page one after another. First, <u>look</u> at the <strong>fixation cross</strong> in the center. When the cross disappears, <strong>look for 5 seconds at each dot</strong> that will appear randomly on the screen.</p><p>Press Space to continue</p></div>","""","""","""",html-keyboard-response,97,465611,0.0-15.0,753,0,0,"Integrierte iSight-Kamera",0x2460000005ac8507,30.00003000003,1,480,640,"""",32,"""","""","""","""","""","""","""","""","""","""","""","2021-01-13 17:59:53",,"Mozilla/5.0 (Macintosh; Intel Mac OS X 10_13_6) AppleWebKit/605.1.15 (KHTML, like Gecko) Version/11.1.2 Safari/605.1.15",Macintosh,Safari,11.1.2,"OS X",10_13_6
4,1,null,"""","""","""","""",html-keyboard-response,98,465718,0.0-16.0-0.0,753,0,0,"Integrierte iSight-Kamera",0x2460000005ac8507,30.00003000003,1,480,640,"""",null,"""","""","""","""","""","""","""","""","""","""","""","2021-01-13 17:59:53",,"Mozilla/5.0 (Macintosh; Intel Mac OS X 10_13_6) AppleWebKit/605.1.15 (KHTML, like Gecko) Version/11.1.2 Safari/605.1.15",Macintosh,Safari,11.1.2,"OS X",10_13_6
4,1,null,"""","""","""","""",html-keyboard-response,99,465820,0.0-16.0-1.0,753,0,0,"Integrierte iSight-Kamera",0x2460000005ac8507,30.00003000003,1,480,640,"""",null,"""","""","""","""","""","""","""","""","""","""","""","2021-01-13 17:59:53",,"Mozilla/5.0 (Macintosh; Intel Mac OS X 10_13_6) AppleWebKit/605.1.15 (KHTML, like Gecko) Version/11.1.2 Safari/605.1.15",Macintosh,Safari,11.1.2,"OS X",10_13_6
4,1,null,"""","""","""","""",html-keyboard-response,100,465922,0.0-16.0-2.0,753,0,0,"Integrierte iSight-Kamera",0x2460000005ac8507,30.00003000003,1,480,640,"""",null,"""","""","""","""","""","""","""","""","""","""","""","2021-01-13 17:59:53",,"Mozilla/5.0 (Macintosh; Intel Mac OS X 10_13_6) AppleWebKit/605.1.15 (KHTML, like Gecko) Version/11.1.2 Safari/605.1.15",Macintosh,Safari,11.1.2,"OS X",10_13_6
4,1,null,"""","""","""","""",html-keyboard-response,101,467423,0.0-16.0-3.0-0.0,753,0,0,"Integrierte iSight-Kamera",0x2460000005ac8507,30.00003000003,1,480,640,"""",null,"""","""","""","""","""","""","""","""","""","""","""","2021-01-13 17:59:53",,"Mozilla/5.0 (Macintosh; Intel Mac OS X 10_13_6) AppleWebKit/605.1.15 (KHTML, like Gecko) Version/11.1.2 Safari/605.1.15",Macintosh,Safari,11.1.2,"OS X",10_13_6
4,1,"""","""","""",1280,800,eyetracking-fix-object,102,469005,0.0-16.0-3.0-1.0,753,0,0,"Integrierte iSight-Kamera",0x2460000005ac8507,30.00003000003,1,480,640,"""","""","""",0.5,0.5,0,1,"{""history"":[]}",1500,"""","""","""","""","2021-01-13 17:59:53",,"Mozilla/5.0 (Macintosh; Intel Mac OS X 10_13_6) AppleWebKit/605.1.15 (KHTML, like Gecko) Version/11.1.2 Safari/605.1.15",Macintosh,Safari,11.1.2,"OS X",10_13_6
4,1,"""","""","""",1280,800,eyetracking-fix-object,103,474036,0.0-16.0-3.0-2.0,753,0,0,"Integrierte iSight-Kamera",0x2460000005ac8507,30.00003000003,1,480,640,"""","""","""",0.5,0.5,0,1,"{""history"":[]}",5000,"""","""","""","""","2021-01-13 17:59:53",,"Mozilla/5.0 (Macintosh; Intel Mac OS X 10_13_6) AppleWebKit/605.1.15 (KHTML, like Gecko) Version/11.1.2 Safari/605.1.15",Macintosh,Safari,11.1.2,"OS X",10_13_6
4,1,null,"""","""","""","""",html-keyboard-response,104,475542,0.0-16.0-3.0-0.1,753,0,0,"Integrierte iSight-Kamera",0x2460000005ac8507,30.00003000003,1,480,640,"""",null,"""","""","""","""","""","""","""","""","""","""","""","2021-01-13 17:59:53",,"Mozilla/5.0 (Macintosh; Intel Mac OS X 10_13_6) AppleWebKit/605.1.15 (KHTML, like Gecko) Version/11.1.2 Safari/605.1.15",Macintosh,Safari,11.1.2,"OS X",10_13_6
4,1,"""","""","""",1280,800,eyetracking-fix-object,105,477062,0.0-16.0-3.0-1.1,753,0,0,"Integrierte iSight-Kamera",0x2460000005ac8507,30.00003000003,1,480,640,"""","""","""",0.5,0.5,0,1,"{""history"":[]}",1500,"""","""","""","""","2021-01-13 17:59:53",,"Mozilla/5.0 (Macintosh; Intel Mac OS X 10_13_6) AppleWebKit/605.1.15 (KHTML, like Gecko) Version/11.1.2 Safari/605.1.15",Macintosh,Safari,11.1.2,"OS X",10_13_6
4,1,"""","""","""",1280,800,eyetracking-fix-object,106,482102,0.0-16.0-3.0-2.1,753,0,0,"Integrierte iSight-Kamera",0x2460000005ac8507,30.00003000003,1,480,640,"""","""","""",0.5,0.8,0,1,"{""history"":[]}",5000,"""","""","""","""","2021-01-13 17:59:53",,"Mozilla/5.0 (Macintosh; Intel Mac OS X 10_13_6) AppleWebKit/605.1.15 (KHTML, like Gecko) Version/11.1.2 Safari/605.1.15",Macintosh,Safari,11.1.2,"OS X",10_13_6
4,1,null,"""","""","""","""",html-keyboard-response,107,483607,0.0-16.0-3.0-0.2,753,0,0,"Integrierte iSight-Kamera",0x2460000005ac8507,30.00003000003,1,480,640,"""",null,"""","""","""","""","""","""","""","""","""","""","""","2021-01-13 17:59:53",,"Mozilla/5.0 (Macintosh; Intel Mac OS X 10_13_6) AppleWebKit/605.1.15 (KHTML, like Gecko) Version/11.1.2 Safari/605.1.15",Macintosh,Safari,11.1.2,"OS X",10_13_6
4,1,"""","""","""",1280,800,eyetracking-fix-object,108,485145,0.0-16.0-3.0-1.2,753,0,0,"Integrierte iSight-Kamera",0x2460000005ac8507,30.00003000003,1,480,640,"""","""","""",0.5,0.5,0,1,"{""history"":[]}",1500,"""","""","""","""","2021-01-13 17:59:53",,"Mozilla/5.0 (Macintosh; Intel Mac OS X 10_13_6) AppleWebKit/605.1.15 (KHTML, like Gecko) Version/11.1.2 Safari/605.1.15",Macintosh,Safari,11.1.2,"OS X",10_13_6
4,1,"""","""","""",1280,800,eyetracking-fix-object,109,490178,0.0-16.0-3.0-2.2,753,0,0,"Integrierte iSight-Kamera",0x2460000005ac8507,30.00003000003,1,480,640,"""","""","""",0.5,0.2,0,1,"{""history"":[]}",5000,"""","""","""","""","2021-01-13 17:59:53",,"Mozilla/5.0 (Macintosh; Intel Mac OS X 10_13_6) AppleWebKit/605.1.15 (KHTML, like Gecko) Version/11.1.2 Safari/605.1.15",Macintosh,Safari,11.1.2,"OS X",10_13_6
4,1,null,"""","""","""","""",html-keyboard-response,110,491682,0.0-16.0-3.0-0.3,753,0,0,"Integrierte iSight-Kamera",0x2460000005ac8507,30.00003000003,1,480,640,"""",null,"""","""","""","""","""","""","""","""","""","""","""","2021-01-13 17:59:53",,"Mozilla/5.0 (Macintosh; Intel Mac OS X 10_13_6) AppleWebKit/605.1.15 (KHTML, like Gecko) Version/11.1.2 Safari/605.1.15",Macintosh,Safari,11.1.2,"OS X",10_13_6
4,1,"""","""","""",1280,800,eyetracking-fix-object,111,493209,0.0-16.0-3.0-1.3,753,0,0,"Integrierte iSight-Kamera",0x2460000005ac8507,30.00003000003,1,480,640,"""","""","""",0.5,0.5,0,1,"{""history"":[]}",1500,"""","""","""","""","2021-01-13 17:59:53",,"Mozilla/5.0 (Macintosh; Intel Mac OS X 10_13_6) AppleWebKit/605.1.15 (KHTML, like Gecko) Version/11.1.2 Safari/605.1.15",Macintosh,Safari,11.1.2,"OS X",10_13_6
4,1,"""","""","""",1280,800,eyetracking-fix-object,112,498796,0.0-16.0-3.0-2.3,753,0,0,"Integrierte iSight-Kamera",0x2460000005ac8507,30.00003000003,1,480,640,"""","""","""",0.8,0.8,0,1,"{""history"":[]}",5000,"""","""","""","""","2021-01-13 17:59:53",,"Mozilla/5.0 (Macintosh; Intel Mac OS X 10_13_6) AppleWebKit/605.1.15 (KHTML, like Gecko) Version/11.1.2 Safari/605.1.15",Macintosh,Safari,11.1.2,"OS X",10_13_6
4,1,null,"""","""","""","""",html-keyboard-response,113,500302,0.0-16.0-3.0-0.4,753,0,0,"Integrierte iSight-Kamera",0x2460000005ac8507,30.00003000003,1,480,640,"""",null,"""","""","""","""","""","""","""","""","""","""","""","2021-01-13 17:59:53",,"Mozilla/5.0 (Macintosh; Intel Mac OS X 10_13_6) AppleWebKit/605.1.15 (KHTML, like Gecko) Version/11.1.2 Safari/605.1.15",Macintosh,Safari,11.1.2,"OS X",10_13_6
4,1,"""","""","""",1280,800,eyetracking-fix-object,114,502492,0.0-16.0-3.0-1.4,753,0,0,"Integrierte iSight-Kamera",0x2460000005ac8507,30.00003000003,1,480,640,"""","""","""",0.5,0.5,0,1,"{""history"":[]}",1500,"""","""","""","""","2021-01-13 17:59:53",,"Mozilla/5.0 (Macintosh; Intel Mac OS X 10_13_6) AppleWebKit/605.1.15 (KHTML, like Gecko) Version/11.1.2 Safari/605.1.15",Macintosh,Safari,11.1.2,"OS X",10_13_6
4,1,"""","""","""",1280,800,eyetracking-fix-object,115,507539,0.0-16.0-3.0-2.4,753,0,0,"Integrierte iSight-Kamera",0x2460000005ac8507,30.00003000003,1,480,640,"""","""","""",0.2,0.2,0,1,"{""history"":[]}",5000,"""","""","""","""","2021-01-13 17:59:53",,"Mozilla/5.0 (Macintosh; Intel Mac OS X 10_13_6) AppleWebKit/605.1.15 (KHTML, like Gecko) Version/11.1.2 Safari/605.1.15",Macintosh,Safari,11.1.2,"OS X",10_13_6
4,1,null,"""","""","""","""",html-keyboard-response,116,509045,0.0-16.0-3.0-0.5,753,0,0,"Integrierte iSight-Kamera",0x2460000005ac8507,30.00003000003,1,480,640,"""",null,"""","""","""","""","""","""","""","""","""","""","""","2021-01-13 17:59:53",,"Mozilla/5.0 (Macintosh; Intel Mac OS X 10_13_6) AppleWebKit/605.1.15 (KHTML, like Gecko) Version/11.1.2 Safari/605.1.15",Macintosh,Safari,11.1.2,"OS X",10_13_6
4,1,"""","""","""",1280,800,eyetracking-fix-object,117,510597,0.0-16.0-3.0-1.5,753,0,0,"Integrierte iSight-Kamera",0x2460000005ac8507,30.00003000003,1,480,640,"""","""","""",0.5,0.5,0,1,"{""history"":[]}",1500,"""","""","""","""","2021-01-13 17:59:53",,"Mozilla/5.0 (Macintosh; Intel Mac OS X 10_13_6) AppleWebKit/605.1.15 (KHTML, like Gecko) Version/11.1.2 Safari/605.1.15",Macintosh,Safari,11.1.2,"OS X",10_13_6
4,1,"""","""","""",1280,800,eyetracking-fix-object,118,515616,0.0-16.0-3.0-2.5,753,0,0,"Integrierte iSight-Kamera",0x2460000005ac8507,30.00003000003,1,480,640,"""","""","""",0.2,0.5,0,1,"{""history"":[]}",5000,"""","""","""","""","2021-01-13 17:59:53",,"Mozilla/5.0 (Macintosh; Intel Mac OS X 10_13_6) AppleWebKit/605.1.15 (KHTML, like Gecko) Version/11.1.2 Safari/605.1.15",Macintosh,Safari,11.1.2,"OS X",10_13_6
4,1,null,"""","""","""","""",html-keyboard-response,119,517124,0.0-16.0-3.0-0.6,753,0,0,"Integrierte iSight-Kamera",0x2460000005ac8507,30.00003000003,1,480,640,"""",null,"""","""","""","""","""","""","""","""","""","""","""","2021-01-13 17:59:53",,"Mozilla/5.0 (Macintosh; Intel Mac OS X 10_13_6) AppleWebKit/605.1.15 (KHTML, like Gecko) Version/11.1.2 Safari/605.1.15",Macintosh,Safari,11.1.2,"OS X",10_13_6
4,1,"""","""","""",1280,800,eyetracking-fix-object,120,518657,0.0-16.0-3.0-1.6,753,0,0,"Integrierte iSight-Kamera",0x2460000005ac8507,30.00003000003,1,480,640,"""","""","""",0.5,0.5,0,1,"{""history"":[]}",1500,"""","""","""","""","2021-01-13 17:59:53",,"Mozilla/5.0 (Macintosh; Intel Mac OS X 10_13_6) AppleWebKit/605.1.15 (KHTML, like Gecko) Version/11.1.2 Safari/605.1.15",Macintosh,Safari,11.1.2,"OS X",10_13_6
4,1,"""","""","""",1280,800,eyetracking-fix-object,121,523687,0.0-16.0-3.0-2.6,753,0,0,"Integrierte iSight-Kamera",0x2460000005ac8507,30.00003000003,1,480,640,"""","""","""",0.2,0.8,0,1,"{""history"":[]}",5000,"""","""","""","""","2021-01-13 17:59:53",,"Mozilla/5.0 (Macintosh; Intel Mac OS X 10_13_6) AppleWebKit/605.1.15 (KHTML, like Gecko) Version/11.1.2 Safari/605.1.15",Macintosh,Safari,11.1.2,"OS X",10_13_6
4,1,null,"""","""","""","""",html-keyboard-response,122,525191,0.0-16.0-3.0-0.7,753,0,0,"Integrierte iSight-Kamera",0x2460000005ac8507,30.00003000003,1,480,640,"""",null,"""","""","""","""","""","""","""","""","""","""","""","2021-01-13 17:59:53",,"Mozilla/5.0 (Macintosh; Intel Mac OS X 10_13_6) AppleWebKit/605.1.15 (KHTML, like Gecko) Version/11.1.2 Safari/605.1.15",Macintosh,Safari,11.1.2,"OS X",10_13_6
4,1,"""","""","""",1280,800,eyetracking-fix-object,123,526734,0.0-16.0-3.0-1.7,753,0,0,"Integrierte iSight-Kamera",0x2460000005ac8507,30.00003000003,1,480,640,"""","""","""",0.5,0.5,0,1,"{""history"":[]}",1500,"""","""","""","""","2021-01-13 17:59:53",,"Mozilla/5.0 (Macintosh; Intel Mac OS X 10_13_6) AppleWebKit/605.1.15 (KHTML, like Gecko) Version/11.1.2 Safari/605.1.15",Macintosh,Safari,11.1.2,"OS X",10_13_6
4,1,"""","""","""",1280,800,eyetracking-fix-object,124,531760,0.0-16.0-3.0-2.7,753,0,0,"Integrierte iSight-Kamera",0x2460000005ac8507,30.00003000003,1,480,640,"""","""","""",0.8,0.5,0,1,"{""history"":[]}",5000,"""","""","""","""","2021-01-13 17:59:53",,"Mozilla/5.0 (Macintosh; Intel Mac OS X 10_13_6) AppleWebKit/605.1.15 (KHTML, like Gecko) Version/11.1.2 Safari/605.1.15",Macintosh,Safari,11.1.2,"OS X",10_13_6
4,1,null,"""","""","""","""",html-keyboard-response,125,533269,0.0-16.0-3.0-0.8,753,0,0,"Integrierte iSight-Kamera",0x2460000005ac8507,30.00003000003,1,480,640,"""",null,"""","""","""","""","""","""","""","""","""","""","""","2021-01-13 17:59:53",,"Mozilla/5.0 (Macintosh; Intel Mac OS X 10_13_6) AppleWebKit/605.1.15 (KHTML, like Gecko) Version/11.1.2 Safari/605.1.15",Macintosh,Safari,11.1.2,"OS X",10_13_6
4,1,"""","""","""",1280,800,eyetracking-fix-object,126,534816,0.0-16.0-3.0-1.8,753,0,0,"Integrierte iSight-Kamera",0x2460000005ac8507,30.00003000003,1,480,640,"""","""","""",0.5,0.5,0,1,"{""history"":[]}",1500,"""","""","""","""","2021-01-13 17:59:53",,"Mozilla/5.0 (Macintosh; Intel Mac OS X 10_13_6) AppleWebKit/605.1.15 (KHTML, like Gecko) Version/11.1.2 Safari/605.1.15",Macintosh,Safari,11.1.2,"OS X",10_13_6
4,1,"""","""","""",1280,800,eyetracking-fix-object,127,540640,0.0-16.0-3.0-2.8,753,0,0,"Integrierte iSight-Kamera",0x2460000005ac8507,30.00003000003,1,480,640,"""","""","""",0.8,0.2,0,1,"{""history"":[]}",5000,"""","""","""","""","2021-01-13 17:59:53",,"Mozilla/5.0 (Macintosh; Intel Mac OS X 10_13_6) AppleWebKit/605.1.15 (KHTML, like Gecko) Version/11.1.2 Safari/605.1.15",Macintosh,Safari,11.1.2,"OS X",10_13_6
4,1,null,"""","""","""","""",html-keyboard-response,128,543642,0.0-16.0-4.0,753,0,0,"Integrierte iSight-Kamera",0x2460000005ac8507,30.00003000003,1,480,640,"""",null,"""","""","""","""","""","""","""","""","""","""","""","2021-01-13 17:59:53",,"Mozilla/5.0 (Macintosh; Intel Mac OS X 10_13_6) AppleWebKit/605.1.15 (KHTML, like Gecko) Version/11.1.2 Safari/605.1.15",Macintosh,Safari,11.1.2,"OS X",10_13_6
4,1,null,"""","""","""","""",html-keyboard-response,129,543750,0.0-16.0-5.0,753,0,0,"Integrierte iSight-Kamera",0x2460000005ac8507,30.00003000003,1,480,640,"""",null,"""","""","""","""","""","""","""","""","""","""","""","2021-01-13 17:59:53",,"Mozilla/5.0 (Macintosh; Intel Mac OS X 10_13_6) AppleWebKit/605.1.15 (KHTML, like Gecko) Version/11.1.2 Safari/605.1.15",Macintosh,Safari,11.1.2,"OS X",10_13_6
4,1,null,"""","""","""","""",html-keyboard-response,130,543852,0.0-16.0-6.0,753,0,0,"Integrierte iSight-Kamera",0x2460000005ac8507,30.00003000003,1,480,640,"""",null,"""","""","""","""","""","""","""","""","""","""","""","2021-01-13 17:59:53",,"Mozilla/5.0 (Macintosh; Intel Mac OS X 10_13_6) AppleWebKit/605.1.15 (KHTML, like Gecko) Version/11.1.2 Safari/605.1.15",Macintosh,Safari,11.1.2,"OS X",10_13_6
4,1,null,"""","""","""","""",html-keyboard-response,131,543954,0.0-16.0-7.0,753,0,0,"Integrierte iSight-Kamera",0x2460000005ac8507,30.00003000003,1,480,640,"""",null,"""","""","""","""","""","""","""","""","""","""","""","2021-01-13 17:59:53",,"Mozilla/5.0 (Macintosh; Intel Mac OS X 10_13_6) AppleWebKit/605.1.15 (KHTML, like Gecko) Version/11.1.2 Safari/605.1.15",Macintosh,Safari,11.1.2,"OS X",10_13_6
4,1,2711,"<div style=""text-align: center; position: fixed; top: 35%; left: 10%; width: 80%;""><p style=""font-size: 18px;"">You completed the study to </p><p style=""font-size: 40px; margin: 10px;""><strong>30% </strong></p><br><p style='font-size: 18px;'>Press Space to continue</p></div>","""","""","""",html-keyboard-response,132,546666,0.0-17.0,753,0,0,"Integrierte iSight-Kamera",0x2460000005ac8507,30.00003000003,1,480,640,"""",32,"""","""","""","""","""","""","""","""","""","""","""","2021-01-13 17:59:53",,"Mozilla/5.0 (Macintosh; Intel Mac OS X 10_13_6) AppleWebKit/605.1.15 (KHTML, like Gecko) Version/11.1.2 Safari/605.1.15",Macintosh,Safari,11.1.2,"OS X",10_13_6
4,1,null,"""","""","""","""",html-keyboard-response,133,546774,0.0-18.0,753,0,0,"Integrierte iSight-Kamera",0x2460000005ac8507,30.00003000003,1,480,640,"""",null,"""","""","""","""","""","""","""","""","""","""","""","2021-01-13 17:59:53",,"Mozilla/5.0 (Macintosh; Intel Mac OS X 10_13_6) AppleWebKit/605.1.15 (KHTML, like Gecko) Version/11.1.2 Safari/605.1.15",Macintosh,Safari,11.1.2,"OS X",10_13_6
4,1,60757,"<div style=""width: 45%; margin: auto; text-align: justify;""><p>For the next two tasks, we will calibrate again. Before that, you can take a short break, loosen your posture and relax your head a little bit. </p><p>In order to make this measurement as accurate as possible, please rest your head on <u>one</u> of your arms, with your elbow on the desk (see image) You face may be covered a little bit but please keep your eyes visible. Get sure that you stay in the rectangle in the video stream while doing that.<p>The idea is to keep your head at the same position at all time so that you <strong>only move your eyes</strong> when you look at the screen. </p></div><div style=""text-align: center;""><img src=""chinstruction.PNG"" alt=""Oh, this image cannot be displayed"" style=""width: 20%;""></div><p style=""text-align: center;"">Press Space to continue </p>","""","""","""",html-keyboard-response,134,607535,0.0-19.0,753,0,0,"Integrierte iSight-Kamera",0x2460000005ac8507,30.00003000003,1,480,640,"""",32,"""","""","""","""","""","""","""","""","""","""","""","2021-01-13 17:59:53",,"Mozilla/5.0 (Macintosh; Intel Mac OS X 10_13_6) AppleWebKit/605.1.15 (KHTML, like Gecko) Version/11.1.2 Safari/605.1.15",Macintosh,Safari,11.1.2,"OS X",10_13_6
4,1,2663,"<div style=""width: 45%; margin: auto; text-align: justify;""><div style=""position: fixed; top: 30%; left: 27.5%; width: 45%; margin: auto; text-align: justify;""><p>Before the next task, we are going to calibrate one last time. <strong>Click 14x on each of the calibration buttons</strong> that will appear on the next page. This will take around <strong>3 minutes. </strong></p><p>For an accurate measurement, please <strong>always</strong> follow the mouse cursor with your eyes. </p><br><p style=""text-align: center;"">Press Space to continue</p></div>","""","""","""",html-keyboard-response,135,610214,0.0-20.0,753,0,0,"Integrierte iSight-Kamera",0x2460000005ac8507,30.00003000003,1,480,640,"""",32,"""","""","""","""","""","""","""","""","""","""","""","2021-01-13 17:59:53",,"Mozilla/5.0 (Macintosh; Intel Mac OS X 10_13_6) AppleWebKit/605.1.15 (KHTML, like Gecko) Version/11.1.2 Safari/605.1.15",Macintosh,Safari,11.1.2,"OS X",10_13_6
4,1,null,"""","""","""","""",html-keyboard-response,136,610318,0.0-21.0-0.0,753,0,0,"Integrierte iSight-Kamera",0x2460000005ac8507,30.00003000003,1,480,640,"""",null,"""","""","""","""","""","""","""","""","""","""","""","2021-01-13 17:59:53",,"Mozilla/5.0 (Macintosh; Intel Mac OS X 10_13_6) AppleWebKit/605.1.15 (KHTML, like Gecko) Version/11.1.2 Safari/605.1.15",Macintosh,Safari,11.1.2,"OS X",10_13_6
4,1,null,"""","""","""","""",html-keyboard-response,137,610425,0.0-21.0-1.0,753,0,0,"Integrierte iSight-Kamera",0x2460000005ac8507,30.00003000003,1,480,640,"""",null,"""","""","""","""","""","""","""","""","""","""","""","2021-01-13 17:59:53",,"Mozilla/5.0 (Macintosh; Intel Mac OS X 10_13_6) AppleWebKit/605.1.15 (KHTML, like Gecko) Version/11.1.2 Safari/605.1.15",Macintosh,Safari,11.1.2,"OS X",10_13_6
4,1,null,"""","""","""","""",html-keyboard-response,138,611927,0.0-21.0-2.0-0.0,753,0,0,"Integrierte iSight-Kamera",0x2460000005ac8507,30.00003000003,1,480,640,"""",null,"""","""","""","""","""","""","""","""","""","""","""","2021-01-13 17:59:53",,"Mozilla/5.0 (Macintosh; Intel Mac OS X 10_13_6) AppleWebKit/605.1.15 (KHTML, like Gecko) Version/11.1.2 Safari/605.1.15",Macintosh,Safari,11.1.2,"OS X",10_13_6
4,1,"""","""","""",1280,800,eyetracking-calibration,139,617225,0.0-21.0-2.0-1.0,753,0,0,"Integrierte iSight-Kamera",0x2460000005ac8507,30.00003000003,1,480,640,"""","""","""",0.5,0.8,1,1,"{""history"":[{""relative-x"":0.503125,""relative-y"":0.8375,""elapse-time"":2447},{""relative-x"":0.49921875,""relative-y"":0.82625,""elapse-time"":2495},{""relative-x"":0.50078125,""relative-y"":0.82875,""elapse-time"":2536.0000000001164},{""relative-x"":0.509375,""relative-y"":0.84375,""elapse-time"":2578},{""relative-x"":0.51328125,""relative-y"":0.85,""elapse-time"":2618},{""relative-x"":0.49375,""relative-y"":0.8,""elapse-time"":2670},{""relative-x"":0.4953125,""relative-y"":0.8,""elapse-time"":2712},{""relative-x"":0.4,""relative-y"":0.64,""elapse-time"":2754},{""relative-x"":0.39609375,""relative-y"":0.63625,""elapse-time"":2790},{""relative-x"":0.375,""relative-y"":0.60375,""elapse-time"":2828},{""relative-x"":0.47734375,""relative-y"":0.77,""elapse-time"":2873},{""relative-x"":0.4671875,""relative-y"":0.75375,""elapse-time"":2922},{""relative-x"":0.49296875,""relative-y"":0.79625,""elapse-time"":2959.0000000001164},{""relative-x"":0.44609375,""relative-y"":0.72625,""elapse-time"":2997},{""relative-x"":0.5171875,""relative-y"":0.8375,""elapse-time"":3044},{""relative-x"":0.58203125,""relative-y"":0.94875,""elapse-time"":3081},{""relative-x"":0.55546875,""relative-y"":0.905,""elapse-time"":3123},{""relative-x"":0.5734375,""relative-y"":0.93375,""elapse-time"":3161.0000000001164},{""relative-x"":0.56328125,""relative-y"":0.91625,""elapse-time"":3199},{""relative-x"":0.51484375,""relative-y"":0.82875,""elapse-time"":3243},{""relative-x"":0.51171875,""relative-y"":0.8275,""elapse-time"":3281.0000000001164},{""relative-x"":0.51171875,""relative-y"":0.8275,""elapse-time"":3323},{""relative-x"":0.51171875,""relative-y"":0.8275,""elapse-time"":3358.0000000001164},{""relative-x"":0.51328125,""relative-y"":0.82625,""elapse-time"":3395},{""relative-x"":0.5140625,""relative-y"":0.8275,""elapse-time"":3442},{""relative-x"":0.5140625,""relative-y"":0.8275,""elapse-time"":3480},{""relative-x"":0.43515625,""relative-y"":0.7,""elapse-time"":3516},{""relative-x"":0.43515625,""relative-y"":0.7,""elapse-time"":3552},{""relative-x"":0.3875,""relative-y"":0.62375,""elapse-time"":3593},{""relative-x"":0.3875,""relative-y"":0.62375,""elapse-time"":3631},{""relative-x"":0.5140625,""relative-y"":0.8275,""elapse-time"":3673},{""relative-x"":0.51171875,""relative-y"":0.82375,""elapse-time"":3713},{""relative-x"":0.51171875,""relative-y"":0.82375,""elapse-time"":3751},{""relative-x"":0.51171875,""relative-y"":0.82375,""elapse-time"":3787},{""relative-x"":0.51171875,""relative-y"":0.82375,""elapse-time"":3825},{""relative-x"":0.5140625,""relative-y"":0.8275,""elapse-time"":3871},{""relative-x"":0.5140625,""relative-y"":0.8275,""elapse-time"":3912},{""relative-x"":0.5140625,""relative-y"":0.8275,""elapse-time"":3949},{""relative-x"":0.5140625,""relative-y"":0.8275,""elapse-time"":3989},{""relative-x"":0.5140625,""relative-y"":0.8275,""elapse-time"":4958},{""relative-x"":0.5140625,""relative-y"":0.8275,""elapse-time"":5080},{""relative-x"":0.50703125,""relative-y"":0.81625,""elapse-time"":5130},{""relative-x"":0.509375,""relative-y"":0.82,""elapse-time"":5182},{""relative-x"":0.50625,""relative-y"":0.815,""elapse-time"":5243},{""relative-x"":0.51484375,""relative-y"":0.82875,""elapse-time"":5293}]}","""","""","""","""","""","2021-01-13 17:59:53",,"Mozilla/5.0 (Macintosh; Intel Mac OS X 10_13_6) AppleWebKit/605.1.15 (KHTML, like Gecko) Version/11.1.2 Safari/605.1.15",Macintosh,Safari,11.1.2,"OS X",10_13_6
4,1,null,"""","""","""","""",html-keyboard-response,140,618734,0.0-21.0-2.0-0.1,753,0,0,"Integrierte iSight-Kamera",0x2460000005ac8507,30.00003000003,1,480,640,"""",null,"""","""","""","""","""","""","""","""","""","""","""","2021-01-13 17:59:53",,"Mozilla/5.0 (Macintosh; Intel Mac OS X 10_13_6) AppleWebKit/605.1.15 (KHTML, like Gecko) Version/11.1.2 Safari/605.1.15",Macintosh,Safari,11.1.2,"OS X",10_13_6
4,1,"""","""","""",1280,800,eyetracking-calibration,141,622676,0.0-21.0-2.0-1.1,753,0,0,"Integrierte iSight-Kamera",0x2460000005ac8507,30.00003000003,1,480,640,"""","""","""",0.35,0.65,1,1,"{""history"":[{""relative-x"":0.496875,""relative-y"":0.8,""elapse-time"":89},{""relative-x"":0.49609375,""relative-y"":0.7975,""elapse-time"":139},{""relative-x"":0.48828125,""relative-y"":0.78625,""elapse-time"":197},{""relative-x"":0.49765625,""relative-y"":0.80125,""elapse-time"":237},{""relative-x"":0.5140625,""relative-y"":0.8275,""elapse-time"":284},{""relative-x"":0.56953125,""relative-y"":0.91625,""elapse-time"":332},{""relative-x"":0.52734375,""relative-y"":0.85,""elapse-time"":374},{""relative-x"":0.5640625,""relative-y"":0.90875,""elapse-time"":422},{""relative-x"":0.5140625,""relative-y"":0.8275,""elapse-time"":473},{""relative-x"":0.52265625,""relative-y"":0.84125,""elapse-time"":528},{""relative-x"":0.54921875,""relative-y"":0.88625,""elapse-time"":593},{""relative-x"":0.5046875,""relative-y"":0.82375,""elapse-time"":660},{""relative-x"":0.44765625,""relative-y"":0.78625,""elapse-time"":736},{""relative-x"":0.50234375,""relative-y"":0.81375,""elapse-time"":804},{""relative-x"":0.43046875,""relative-y"":0.75375,""elapse-time"":875},{""relative-x"":0.4765625,""relative-y"":0.80125,""elapse-time"":960},{""relative-x"":0.40546875,""relative-y"":0.73625,""elapse-time"":1041},{""relative-x"":0.3859375,""relative-y"":0.71375,""elapse-time"":1099.0000000001164},{""relative-x"":0.37890625,""relative-y"":0.7025,""elapse-time"":1165},{""relative-x"":0.37734375,""relative-y"":0.6975,""elapse-time"":1232},{""relative-x"":0.37734375,""relative-y"":0.69375,""elapse-time"":1298},{""relative-x"":0.40234375,""relative-y"":0.69875,""elapse-time"":1365},{""relative-x"":0.40234375,""relative-y"":0.69875,""elapse-time"":1417},{""relative-x"":0.5140625,""relative-y"":0.8275,""elapse-time"":1467},{""relative-x"":0.5140625,""relative-y"":0.8275,""elapse-time"":1519},{""relative-x"":0.44453125,""relative-y"":0.75375,""elapse-time"":1587},{""relative-x"":0.5140625,""relative-y"":0.8275,""elapse-time"":1638},{""relative-x"":0.5140625,""relative-y"":0.8275,""elapse-time"":1705.0000000001164},{""relative-x"":0.44453125,""relative-y"":0.75375,""elapse-time"":1771},{""relative-x"":0.44453125,""relative-y"":0.75375,""elapse-time"":1839},{""relative-x"":0.44453125,""relative-y"":0.75375,""elapse-time"":1890},{""relative-x"":0.44453125,""relative-y"":0.75375,""elapse-time"":1959},{""relative-x"":0.44453125,""relative-y"":0.75375,""elapse-time"":2012},{""relative-x"":0.44453125,""relative-y"":0.75375,""elapse-time"":2060},{""relative-x"":0.5140625,""relative-y"":0.8275,""elapse-time"":3053},{""relative-x"":0.4546875,""relative-y"":0.76375,""elapse-time"":3211},{""relative-x"":0.509375,""relative-y"":0.82125,""elapse-time"":3262},{""relative-x"":0.5140625,""relative-y"":0.8275,""elapse-time"":3329},{""relative-x"":0.44453125,""relative-y"":0.74875,""elapse-time"":3397.0000000001164},{""relative-x"":0.51484375,""relative-y"":0.82875,""elapse-time"":3458},{""relative-x"":0.43359375,""relative-y"":0.7325,""elapse-time"":3530},{""relative-x"":0.43125,""relative-y"":0.73,""elapse-time"":3582},{""relative-x"":0.42890625,""relative-y"":0.72375,""elapse-time"":3644},{""relative-x"":0.41796875,""relative-y"":0.725,""elapse-time"":3701},{""relative-x"":0.5140625,""relative-y"":0.8275,""elapse-time"":3752},{""relative-x"":0.528125,""relative-y"":0.8775,""elapse-time"":3819},{""relative-x"":0.4171875,""relative-y"":0.71,""elapse-time"":3885},{""relative-x"":0.50625,""relative-y"":0.84,""elapse-time"":3937}]}","""","""","""","""","""","2021-01-13 17:59:53",,"Mozilla/5.0 (Macintosh; Intel Mac OS X 10_13_6) AppleWebKit/605.1.15 (KHTML, like Gecko) Version/11.1.2 Safari/605.1.15",Macintosh,Safari,11.1.2,"OS X",10_13_6
4,1,null,"""","""","""","""",html-keyboard-response,142,624185,0.0-21.0-2.0-0.2,753,0,0,"Integrierte iSight-Kamera",0x2460000005ac8507,30.00003000003,1,480,640,"""",null,"""","""","""","""","""","""","""","""","""","""","""","2021-01-13 17:59:53",,"Mozilla/5.0 (Macintosh; Intel Mac OS X 10_13_6) AppleWebKit/605.1.15 (KHTML, like Gecko) Version/11.1.2 Safari/605.1.15",Macintosh,Safari,11.1.2,"OS X",10_13_6
4,1,"""","""","""",1280,800,eyetracking-calibration,143,628726,0.0-21.0-2.0-1.2,753,0,0,"Integrierte iSight-Kamera",0x2460000005ac8507,30.00003000003,1,480,640,"""","""","""",0.2,0.2,1,1,"{""history"":[{""relative-x"":0.5140625,""relative-y"":0.8275,""elapse-time"":89.99999999988358},{""relative-x"":0.4890625,""relative-y"":0.80625,""elapse-time"":134.99999999988358},{""relative-x"":0.4640625,""relative-y"":0.79125,""elapse-time"":176.99999999988358},{""relative-x"":0.4453125,""relative-y"":0.75625,""elapse-time"":226},{""relative-x"":0.515625,""relative-y"":0.83,""elapse-time"":269},{""relative-x"":0.5140625,""relative-y"":0.8275,""elapse-time"":314.9999999998836},{""relative-x"":0.5140625,""relative-y"":0.8275,""elapse-time"":363.9999999998836},{""relative-x"":0.44453125,""relative-y"":0.75375,""elapse-time"":405.9999999998836},{""relative-x"":0.44453125,""relative-y"":0.75375,""elapse-time"":452},{""relative-x"":0.44453125,""relative-y"":0.75375,""elapse-time"":496.9999999998836},{""relative-x"":0.44453125,""relative-y"":0.75375,""elapse-time"":538.9999999998836},{""relative-x"":0.44453125,""relative-y"":0.75375,""elapse-time"":586.9999999998836},{""relative-x"":0.40859375,""relative-y"":0.715,""elapse-time"":656.9999999998836},{""relative-x"":0.403125,""relative-y"":0.6925,""elapse-time"":726},{""relative-x"":0.31328125,""relative-y"":0.58375,""elapse-time"":805.9999999998836},{""relative-x"":0.42109375,""relative-y"":0.72875,""elapse-time"":875},{""relative-x"":0.34296875,""relative-y"":0.585,""elapse-time"":945.9999999998836},{""relative-x"":0.30625,""relative-y"":0.51125,""elapse-time"":1014.9999999998836},{""relative-x"":0.42109375,""relative-y"":0.72875,""elapse-time"":1088.9999999998836},{""relative-x"":0.3390625,""relative-y"":0.55625,""elapse-time"":1158.9999999998836},{""relative-x"":0.30390625,""relative-y"":0.47875,""elapse-time"":1214.9999999998836},{""relative-x"":0.28359375,""relative-y"":0.4325,""elapse-time"":1279},{""relative-x"":0.2703125,""relative-y"":0.39875,""elapse-time"":1340.9999999998836},{""relative-x"":0.28515625,""relative-y"":0.4675,""elapse-time"":1394.9999999998836},{""relative-x"":0.28515625,""relative-y"":0.4675,""elapse-time"":1447},{""relative-x"":0.28515625,""relative-y"":0.4675,""elapse-time"":1495.9999999998836},{""relative-x"":0.4546875,""relative-y"":0.765,""elapse-time"":2456.9999999998836},{""relative-x"":0.38984375,""relative-y"":0.62875,""elapse-time"":2543},{""relative-x"":0.4375,""relative-y"":0.73375,""elapse-time"":2582.9999999998836},{""relative-x"":0.44453125,""relative-y"":0.75375,""elapse-time"":2627.9999999998836},{""relative-x"":0.3765625,""relative-y"":0.605,""elapse-time"":2670.9999999998836},{""relative-x"":0.44453125,""relative-y"":0.75375,""elapse-time"":2709.9999999998836},{""relative-x"":0.39921875,""relative-y"":0.6625,""elapse-time"":2755.9999999998836},{""relative-x"":0.4234375,""relative-y"":0.72875,""elapse-time"":2800.9999999998836},{""relative-x"":0.37421875,""relative-y"":0.67875,""elapse-time"":2866.9999999998836},{""relative-x"":0.35078125,""relative-y"":0.57875,""elapse-time"":2918},{""relative-x"":0.5140625,""relative-y"":0.8275,""elapse-time"":2984.9999999998836},{""relative-x"":0.375,""relative-y"":0.68,""elapse-time"":3037.9999999998836},{""relative-x"":0.36484375,""relative-y"":0.5925,""elapse-time"":3087.9999999998836},{""relative-x"":0.45625,""relative-y"":0.71375,""elapse-time"":3156.9999999998836},{""relative-x"":0.5140625,""relative-y"":0.8275,""elapse-time"":3206.9999999998836},{""relative-x"":0.40625,""relative-y"":0.62375,""elapse-time"":3257.9999999998836},{""relative-x"":0.3609375,""relative-y"":0.56,""elapse-time"":3320.9999999998836},{""relative-x"":0.43828125,""relative-y"":0.7325,""elapse-time"":3372.9999999998836},{""relative-x"":0.5078125,""relative-y"":0.80625,""elapse-time"":3421.9999999998836},{""relative-x"":0.5140625,""relative-y"":0.8275,""elapse-time"":3472.9999999998836},{""relative-x"":0.5140625,""relative-y"":0.8275,""elapse-time"":3524.9999999998836},{""relative-x"":0.44453125,""relative-y"":0.75375,""elapse-time"":3593.9999999998836},{""relative-x"":0.36640625,""relative-y"":0.5825,""elapse-time"":3659.9999999998836},{""relative-x"":0.36640625,""relative-y"":0.5825,""elapse-time"":3708.9999999998836},{""relative-x"":0.36640625,""relative-y"":0.5825,""elapse-time"":3758.9999999998836},{""relative-x"":0.36640625,""relative-y"":0.5825,""elapse-time"":3809.9999999998836},{""relative-x"":0.32734375,""relative-y"":0.49625,""elapse-time"":3875.9999999998836},{""relative-x"":0.44453125,""relative-y"":0.73625,""elapse-time"":3930.9999999998836},{""relative-x"":0.44453125,""relative-y"":0.73625,""elapse-time"":3995.9999999998836},{""relative-x"":0.36796875,""relative-y"":0.60875,""elapse-time"":4063.9999999998836},{""relative-x"":0.36796875,""relative-y"":0.60875,""elapse-time"":4115.999999999884},{""relative-x"":0.36796875,""relative-y"":0.60875,""elapse-time"":4165.999999999884},{""relative-x"":0.42109375,""relative-y"":0.72875,""elapse-time"":4250.999999999884},{""relative-x"":0.42109375,""relative-y"":0.72875,""elapse-time"":4300.999999999884},{""relative-x"":0.42109375,""relative-y"":0.72875,""elapse-time"":4354.999999999884},{""relative-x"":0.36875,""relative-y"":0.60625,""elapse-time"":4423},{""relative-x"":0.36875,""relative-y"":0.60625,""elapse-time"":4482.999999999884},{""relative-x"":0.33671875,""relative-y"":0.535,""elapse-time"":4537.999999999884}]}","""","""","""","""","""","2021-01-13 17:59:53",,"Mozilla/5.0 (Macintosh; Intel Mac OS X 10_13_6) AppleWebKit/605.1.15 (KHTML, like Gecko) Version/11.1.2 Safari/605.1.15",Macintosh,Safari,11.1.2,"OS X",10_13_6
4,1,null,"""","""","""","""",html-keyboard-response,144,630233,0.0-21.0-2.0-0.3,753,0,0,"Integrierte iSight-Kamera",0x2460000005ac8507,30.00003000003,1,480,640,"""",null,"""","""","""","""","""","""","""","""","""","""","""","2021-01-13 17:59:53",,"Mozilla/5.0 (Macintosh; Intel Mac OS X 10_13_6) AppleWebKit/605.1.15 (KHTML, like Gecko) Version/11.1.2 Safari/605.1.15",Macintosh,Safari,11.1.2,"OS X",10_13_6
4,1,"""","""","""",1280,800,eyetracking-calibration,145,635148,0.0-21.0-2.0-1.3,753,0,0,"Integrierte iSight-Kamera",0x2460000005ac8507,30.00003000003,1,480,640,"""","""","""",0.65,0.65,1,1,"{""history"":[{""relative-x"":0.33671875,""relative-y"":0.535,""elapse-time"":75.00000000011642},{""relative-x"":0.33671875,""relative-y"":0.535,""elapse-time"":126},{""relative-x"":0.38984375,""relative-y"":0.62875,""elapse-time"":1125},{""relative-x"":0.37265625,""relative-y"":0.59125,""elapse-time"":1222},{""relative-x"":0.209375,""relative-y"":0.25,""elapse-time"":1294},{""relative-x"":0.44453125,""relative-y"":0.75375,""elapse-time"":1362},{""relative-x"":0.3734375,""relative-y"":0.415,""elapse-time"":1432},{""relative-x"":0.44453125,""relative-y"":0.75375,""elapse-time"":1498.0000000001164},{""relative-x"":0.47734375,""relative-y"":0.58125,""elapse-time"":1566},{""relative-x"":0.55625,""relative-y"":0.71625,""elapse-time"":1634},{""relative-x"":0.37421875,""relative-y"":0.67875,""elapse-time"":1685},{""relative-x"":0.2109375,""relative-y"":0.23875,""elapse-time"":1736},{""relative-x"":0.5140625,""relative-y"":0.8275,""elapse-time"":1786},{""relative-x"":0.37421875,""relative-y"":0.67875,""elapse-time"":1840},{""relative-x"":0.2109375,""relative-y"":0.23875,""elapse-time"":1907},{""relative-x"":0.3234375,""relative-y"":0.4625,""elapse-time"":1974.0000000001164},{""relative-x"":0.5140625,""relative-y"":0.8275,""elapse-time"":2040},{""relative-x"":0.2109375,""relative-y"":0.23875,""elapse-time"":2107},{""relative-x"":0.28515625,""relative-y"":0.36375,""elapse-time"":2158},{""relative-x"":0.3046875,""relative-y"":0.445,""elapse-time"":2212},{""relative-x"":0.85390625,""relative-y"":0.99,""elapse-time"":2276},{""relative-x"":0.5140625,""relative-y"":0.8275,""elapse-time"":2339},{""relative-x"":0.5140625,""relative-y"":0.8275,""elapse-time"":2397.0000000001164},{""relative-x"":0.32734375,""relative-y"":0.49625,""elapse-time"":2465},{""relative-x"":0.32734375,""relative-y"":0.49625,""elapse-time"":2529},{""relative-x"":0.32734375,""relative-y"":0.49625,""elapse-time"":2579},{""relative-x"":0.3953125,""relative-y"":0.52875,""elapse-time"":2648},{""relative-x"":0.3953125,""relative-y"":0.52875,""elapse-time"":2716},{""relative-x"":0.3953125,""relative-y"":0.52875,""elapse-time"":2767},{""relative-x"":0.2109375,""relative-y"":0.23875,""elapse-time"":2834},{""relative-x"":0.2109375,""relative-y"":0.23875,""elapse-time"":2885},{""relative-x"":0.33671875,""relative-y"":0.535,""elapse-time"":2955.0000000001164},{""relative-x"":0.39140625,""relative-y"":0.555,""elapse-time"":3021},{""relative-x"":0.39140625,""relative-y"":0.555,""elapse-time"":3087},{""relative-x"":0.36875,""relative-y"":0.60625,""elapse-time"":3171.0000000001164},{""relative-x"":0.36875,""relative-y"":0.60625,""elapse-time"":3224.0000000001164},{""relative-x"":0.36875,""relative-y"":0.60625,""elapse-time"":3285},{""relative-x"":0.428125,""relative-y"":0.61625,""elapse-time"":3339},{""relative-x"":0.428125,""relative-y"":0.61625,""elapse-time"":3392},{""relative-x"":0.43125,""relative-y"":0.57,""elapse-time"":3441},{""relative-x"":0.43125,""relative-y"":0.57,""elapse-time"":3492},{""relative-x"":0.46015625,""relative-y"":0.58125,""elapse-time"":3559},{""relative-x"":0.38984375,""relative-y"":0.62875,""elapse-time"":4569},{""relative-x"":0.45625,""relative-y"":0.63625,""elapse-time"":4740},{""relative-x"":0.209375,""relative-y"":0.25,""elapse-time"":4791},{""relative-x"":0.44453125,""relative-y"":0.75375,""elapse-time"":4860},{""relative-x"":0.33125,""relative-y"":0.45125,""elapse-time"":4909}]}","""","""","""","""","""","2021-01-13 17:59:53",,"Mozilla/5.0 (Macintosh; Intel Mac OS X 10_13_6) AppleWebKit/605.1.15 (KHTML, like Gecko) Version/11.1.2 Safari/605.1.15",Macintosh,Safari,11.1.2,"OS X",10_13_6
4,1,null,"""","""","""","""",html-keyboard-response,146,636654,0.0-21.0-2.0-0.4,753,0,0,"Integrierte iSight-Kamera",0x2460000005ac8507,30.00003000003,1,480,640,"""",null,"""","""","""","""","""","""","""","""","""","""","""","2021-01-13 17:59:53",,"Mozilla/5.0 (Macintosh; Intel Mac OS X 10_13_6) AppleWebKit/605.1.15 (KHTML, like Gecko) Version/11.1.2 Safari/605.1.15",Macintosh,Safari,11.1.2,"OS X",10_13_6
4,1,"""","""","""",1280,800,eyetracking-calibration,147,640497,0.0-21.0-2.0-1.4,753,0,0,"Integrierte iSight-Kamera",0x2460000005ac8507,30.00003000003,1,480,640,"""","""","""",0.65,0.35,1,1,"{""history"":[{""relative-x"":0.44453125,""relative-y"":0.75375,""elapse-time"":75.99999999988358},{""relative-x"":0.29453125,""relative-y"":0.59375,""elapse-time"":127.99999999988358},{""relative-x"":0.39296875,""relative-y"":0.71375,""elapse-time"":176.99999999988358},{""relative-x"":0.37421875,""relative-y"":0.67875,""elapse-time"":227.99999999988358},{""relative-x"":0.2109375,""relative-y"":0.23875,""elapse-time"":279},{""relative-x"":0.5140625,""relative-y"":0.8275,""elapse-time"":333.9999999998836},{""relative-x"":0.5203125,""relative-y"":0.66875,""elapse-time"":378.9999999998836},{""relative-x"":0.2109375,""relative-y"":0.23875,""elapse-time"":426.9999999998836},{""relative-x"":0.47421875,""relative-y"":0.53,""elapse-time"":482.9999999998836},{""relative-x"":0.590625,""relative-y"":0.7425,""elapse-time"":538.9999999998836},{""relative-x"":0.2109375,""relative-y"":0.23875,""elapse-time"":601},{""relative-x"":0.5359375,""relative-y"":0.5975,""elapse-time"":656.9999999998836},{""relative-x"":0.66640625,""relative-y"":0.6575,""elapse-time"":718.9999999998836},{""relative-x"":0.8125,""relative-y"":0.72375,""elapse-time"":780.9999999998836},{""relative-x"":0.53984375,""relative-y"":0.64375,""elapse-time"":837.9999999998836},{""relative-x"":0.58828125,""relative-y"":0.545,""elapse-time"":896.9999999998836},{""relative-x"":0.46875,""relative-y"":0.55875,""elapse-time"":959.9999999998836},{""relative-x"":0.5125,""relative-y"":0.51625,""elapse-time"":1026.9999999998836},{""relative-x"":0.540625,""relative-y"":0.48875,""elapse-time"":1086.9999999998836},{""relative-x"":0.540625,""relative-y"":0.48875,""elapse-time"":1140.9999999998836},{""relative-x"":0.540625,""relative-y"":0.48875,""elapse-time"":1191.9999999998836},{""relative-x"":0.55078125,""relative-y"":0.47875,""elapse-time"":1259.9999999998836},{""relative-x"":0.2109375,""relative-y"":0.23875,""elapse-time"":1327},{""relative-x"":0.43828125,""relative-y"":0.30375,""elapse-time"":1394.9999999998836},{""relative-x"":0.46015625,""relative-y"":0.58125,""elapse-time"":1445.9999999998836},{""relative-x"":0.46015625,""relative-y"":0.58125,""elapse-time"":1513.9999999998836},{""relative-x"":0.48359375,""relative-y"":0.5575,""elapse-time"":1579.9999999998836},{""relative-x"":0.428125,""relative-y"":0.61625,""elapse-time"":1630},{""relative-x"":0.428125,""relative-y"":0.61625,""elapse-time"":1690.9999999998836},{""relative-x"":0.46796875,""relative-y"":0.575,""elapse-time"":1757.9999999998836},{""relative-x"":0.46796875,""relative-y"":0.575,""elapse-time"":1808.9999999998836},{""relative-x"":0.46796875,""relative-y"":0.575,""elapse-time"":1870.9999999998836},{""relative-x"":0.48359375,""relative-y"":0.5575,""elapse-time"":1924.9999999998836},{""relative-x"":0.48359375,""relative-y"":0.5575,""elapse-time"":1979.9999999998836},{""relative-x"":0.48359375,""relative-y"":0.5575,""elapse-time"":2027.9999999998836},{""relative-x"":0.45625,""relative-y"":0.63625,""elapse-time"":3015.9999999998836},{""relative-x"":0.49140625,""relative-y"":0.59125,""elapse-time"":3101.9999999998836},{""relative-x"":0.4375,""relative-y"":0.45375,""elapse-time"":3145.9999999998836},{""relative-x"":0.44453125,""relative-y"":0.75375,""elapse-time"":3200.9999999998836},{""relative-x"":0.34296875,""relative-y"":0.43,""elapse-time"":3244.9999999998836},{""relative-x"":0.44453125,""relative-y"":0.75375,""elapse-time"":3285.9999999998836},{""relative-x"":0.275,""relative-y"":0.60375,""elapse-time"":3333.9999999998836},{""relative-x"":0.49765625,""relative-y"":0.6575,""elapse-time"":3399},{""relative-x"":0.37421875,""relative-y"":0.67875,""elapse-time"":3452},{""relative-x"":0.2109375,""relative-y"":0.23875,""elapse-time"":3506.9999999998836},{""relative-x"":0.5140625,""relative-y"":0.8275,""elapse-time"":3572},{""relative-x"":0.5203125,""relative-y"":0.66875,""elapse-time"":3625.9999999998836},{""relative-x"":0.2109375,""relative-y"":0.23875,""elapse-time"":3673},{""relative-x"":0.53515625,""relative-y"":0.60125,""elapse-time"":3723.9999999998836},{""relative-x"":0.590625,""relative-y"":0.7425,""elapse-time"":3787.9999999998836},{""relative-x"":0.2109375,""relative-y"":0.23875,""elapse-time"":3838.9999999998836}]}","""","""","""","""","""","2021-01-13 17:59:53",,"Mozilla/5.0 (Macintosh; Intel Mac OS X 10_13_6) AppleWebKit/605.1.15 (KHTML, like Gecko) Version/11.1.2 Safari/605.1.15",Macintosh,Safari,11.1.2,"OS X",10_13_6
4,1,null,"""","""","""","""",html-keyboard-response,148,642004,0.0-21.0-2.0-0.5,753,0,0,"Integrierte iSight-Kamera",0x2460000005ac8507,30.00003000003,1,480,640,"""",null,"""","""","""","""","""","""","""","""","""","""","""","2021-01-13 17:59:53",,"Mozilla/5.0 (Macintosh; Intel Mac OS X 10_13_6) AppleWebKit/605.1.15 (KHTML, like Gecko) Version/11.1.2 Safari/605.1.15",Macintosh,Safari,11.1.2,"OS X",10_13_6
4,1,"""","""","""",1280,800,eyetracking-calibration,149,647339,0.0-21.0-2.0-1.5,753,0,0,"Integrierte iSight-Kamera",0x2460000005ac8507,30.00003000003,1,480,640,"""","""","""",0.2,0.8,1,1,"{""history"":[{""relative-x"":0.471875,""relative-y"":0.495,""elapse-time"":88},{""relative-x"":0.66640625,""relative-y"":0.6575,""elapse-time"":136},{""relative-x"":0.784375,""relative-y"":0.8775,""elapse-time"":182},{""relative-x"":0.590625,""relative-y"":0.7425,""elapse-time"":231},{""relative-x"":0.590625,""relative-y"":0.7425,""elapse-time"":280.0000000001164},{""relative-x"":0.47265625,""relative-y"":0.52375,""elapse-time"":333.0000000001164},{""relative-x"":0.47265625,""relative-y"":0.52375,""elapse-time"":382},{""relative-x"":0.515625,""relative-y"":0.49,""elapse-time"":447},{""relative-x"":0.540625,""relative-y"":0.47375,""elapse-time"":511},{""relative-x"":0.553125,""relative-y"":0.47125,""elapse-time"":576},{""relative-x"":0.55625,""relative-y"":0.4775,""elapse-time"":634},{""relative-x"":0.43828125,""relative-y"":0.30375,""elapse-time"":695},{""relative-x"":0.46171875,""relative-y"":0.46125,""elapse-time"":769},{""relative-x"":0.5015625,""relative-y"":0.53875,""elapse-time"":836},{""relative-x"":0.47890625,""relative-y"":0.57375,""elapse-time"":920},{""relative-x"":0.47890625,""relative-y"":0.57375,""elapse-time"":973},{""relative-x"":0.49609375,""relative-y"":0.545,""elapse-time"":1024},{""relative-x"":0.49609375,""relative-y"":0.545,""elapse-time"":1091},{""relative-x"":0.49609375,""relative-y"":0.545,""elapse-time"":1157},{""relative-x"":0.45859375,""relative-y"":0.59375,""elapse-time"":1225},{""relative-x"":0.43125,""relative-y"":0.625,""elapse-time"":1295},{""relative-x"":0.47890625,""relative-y"":0.57375,""elapse-time"":1359},{""relative-x"":0.44375,""relative-y"":0.61625,""elapse-time"":1423},{""relative-x"":0.4171875,""relative-y"":0.6475,""elapse-time"":1490},{""relative-x"":0.49140625,""relative-y"":0.59125,""elapse-time"":2459},{""relative-x"":0.446875,""relative-y"":0.6325,""elapse-time"":2544},{""relative-x"":0.5140625,""relative-y"":0.425,""elapse-time"":2593},{""relative-x"":0.44453125,""relative-y"":0.75375,""elapse-time"":2642},{""relative-x"":0.46328125,""relative-y"":0.41875,""elapse-time"":2686},{""relative-x"":0.44453125,""relative-y"":0.75375,""elapse-time"":2736},{""relative-x"":0.665625,""relative-y"":0.36875,""elapse-time"":2780.0000000001164},{""relative-x"":0.43515625,""relative-y"":0.7225,""elapse-time"":2823.0000000001164},{""relative-x"":0.375,""relative-y"":0.67875,""elapse-time"":2868},{""relative-x"":0.43828125,""relative-y"":0.30375,""elapse-time"":2915},{""relative-x"":0.5140625,""relative-y"":0.8275,""elapse-time"":2966},{""relative-x"":0.5203125,""relative-y"":0.66875,""elapse-time"":3016},{""relative-x"":0.2109375,""relative-y"":0.23875,""elapse-time"":3061},{""relative-x"":0.665625,""relative-y"":0.36875,""elapse-time"":3117},{""relative-x"":0.590625,""relative-y"":0.7425,""elapse-time"":3166},{""relative-x"":0.2109375,""relative-y"":0.23875,""elapse-time"":3210},{""relative-x"":0.4453125,""relative-y"":0.55125,""elapse-time"":3253},{""relative-x"":0.66640625,""relative-y"":0.6575,""elapse-time"":3302},{""relative-x"":0.784375,""relative-y"":0.8775,""elapse-time"":3345},{""relative-x"":0.590625,""relative-y"":0.7425,""elapse-time"":3392},{""relative-x"":0.590625,""relative-y"":0.7425,""elapse-time"":3437},{""relative-x"":0.47265625,""relative-y"":0.52375,""elapse-time"":3489},{""relative-x"":0.47265625,""relative-y"":0.52375,""elapse-time"":3537},{""relative-x"":0.47265625,""relative-y"":0.52375,""elapse-time"":3583.0000000001164},{""relative-x"":0.47265625,""relative-y"":0.52375,""elapse-time"":3628},{""relative-x"":0.44140625,""relative-y"":0.5625,""elapse-time"":3674.0000000001164},{""relative-x"":0.44140625,""relative-y"":0.5625,""elapse-time"":3723},{""relative-x"":0.43828125,""relative-y"":0.30375,""elapse-time"":3767},{""relative-x"":0.43828125,""relative-y"":0.30375,""elapse-time"":3808},{""relative-x"":0.5015625,""relative-y"":0.53875,""elapse-time"":3853},{""relative-x"":0.5015625,""relative-y"":0.53875,""elapse-time"":3895},{""relative-x"":0.5015625,""relative-y"":0.53875,""elapse-time"":3939},{""relative-x"":0.49609375,""relative-y"":0.545,""elapse-time"":3983},{""relative-x"":0.46171875,""relative-y"":0.58125,""elapse-time"":4031},{""relative-x"":0.46171875,""relative-y"":0.58125,""elapse-time"":4080},{""relative-x"":0.46171875,""relative-y"":0.58125,""elapse-time"":4124},{""relative-x"":0.46171875,""relative-y"":0.58125,""elapse-time"":4167},{""relative-x"":0.5015625,""relative-y"":0.53875,""elapse-time"":4222.000000000116},{""relative-x"":0.5015625,""relative-y"":0.53875,""elapse-time"":4265},{""relative-x"":0.5015625,""relative-y"":0.53875,""elapse-time"":4309.000000000116},{""relative-x"":0.453125,""relative-y"":0.62625,""elapse-time"":5269},{""relative-x"":0.440625,""relative-y"":0.6375,""elapse-time"":5330}]}","""","""","""","""","""","2021-01-13 17:59:53",,"Mozilla/5.0 (Macintosh; Intel Mac OS X 10_13_6) AppleWebKit/605.1.15 (KHTML, like Gecko) Version/11.1.2 Safari/605.1.15",Macintosh,Safari,11.1.2,"OS X",10_13_6
4,1,null,"""","""","""","""",html-keyboard-response,150,648845,0.0-21.0-2.0-0.6,753,0,0,"Integrierte iSight-Kamera",0x2460000005ac8507,30.00003000003,1,480,640,"""",null,"""","""","""","""","""","""","""","""","""","""","""","2021-01-13 17:59:53",,"Mozilla/5.0 (Macintosh; Intel Mac OS X 10_13_6) AppleWebKit/605.1.15 (KHTML, like Gecko) Version/11.1.2 Safari/605.1.15",Macintosh,Safari,11.1.2,"OS X",10_13_6
4,1,"""","""","""",1280,800,eyetracking-calibration,151,653456,0.0-21.0-2.0-1.6,753,0,0,"Integrierte iSight-Kamera",0x2460000005ac8507,30.00003000003,1,480,640,"""","""","""",0.8,0.2,1,1,"{""history"":[{""relative-x"":0.5140625,""relative-y"":0.425,""elapse-time"":95},{""relative-x"":0.44453125,""relative-y"":0.75375,""elapse-time"":150},{""relative-x"":0.22265625,""relative-y"":0.83375,""elapse-time"":199},{""relative-x"":0.44453125,""relative-y"":0.75375,""elapse-time"":254},{""relative-x"":0.665625,""relative-y"":0.36875,""elapse-time"":300},{""relative-x"":0.3515625,""relative-y"":0.82625,""elapse-time"":350},{""relative-x"":0.2984375,""relative-y"":0.75625,""elapse-time"":404},{""relative-x"":0.43828125,""relative-y"":0.30375,""elapse-time"":454},{""relative-x"":0.5140625,""relative-y"":0.8275,""elapse-time"":502},{""relative-x"":0.5203125,""relative-y"":0.66875,""elapse-time"":568},{""relative-x"":0.21640625,""relative-y"":0.53625,""elapse-time"":635},{""relative-x"":0.665625,""relative-y"":0.36875,""elapse-time"":700},{""relative-x"":0.590625,""relative-y"":0.7425,""elapse-time"":759},{""relative-x"":0.2109375,""relative-y"":0.23875,""elapse-time"":819},{""relative-x"":0.22265625,""relative-y"":0.83375,""elapse-time"":893},{""relative-x"":0.66640625,""relative-y"":0.6575,""elapse-time"":950},{""relative-x"":0.64921875,""relative-y"":0.79125,""elapse-time"":1016},{""relative-x"":0.48125,""relative-y"":0.695,""elapse-time"":1096},{""relative-x"":0.48125,""relative-y"":0.695,""elapse-time"":1150},{""relative-x"":0.43671875,""relative-y"":0.5925,""elapse-time"":1216},{""relative-x"":0.43671875,""relative-y"":0.5925,""elapse-time"":1267.0000000001164},{""relative-x"":0.43671875,""relative-y"":0.5925,""elapse-time"":1321},{""relative-x"":0.49375,""relative-y"":0.5625,""elapse-time"":1398},{""relative-x"":0.5375,""relative-y"":0.5325,""elapse-time"":1456},{""relative-x"":0.57421875,""relative-y"":0.4975,""elapse-time"":1532},{""relative-x"":0.43828125,""relative-y"":0.30375,""elapse-time"":1598},{""relative-x"":0.634375,""relative-y"":0.26125,""elapse-time"":1652},{""relative-x"":0.5015625,""relative-y"":0.53875,""elapse-time"":1716},{""relative-x"":0.5015625,""relative-y"":0.53875,""elapse-time"":1767.0000000001164},{""relative-x"":0.5015625,""relative-y"":0.53875,""elapse-time"":1832},{""relative-x"":0.43515625,""relative-y"":0.61,""elapse-time"":1900},{""relative-x"":0.43515625,""relative-y"":0.61,""elapse-time"":1952},{""relative-x"":0.475,""relative-y"":0.57,""elapse-time"":2015},{""relative-x"":0.475,""relative-y"":0.57,""elapse-time"":2064},{""relative-x"":0.475,""relative-y"":0.57,""elapse-time"":2111},{""relative-x"":0.53125,""relative-y"":0.50875,""elapse-time"":2156},{""relative-x"":0.55625,""relative-y"":0.485,""elapse-time"":2207},{""relative-x"":0.55625,""relative-y"":0.485,""elapse-time"":2252},{""relative-x"":0.440625,""relative-y"":0.6375,""elapse-time"":3209.0000000001164},{""relative-x"":0.48671875,""relative-y"":0.5875,""elapse-time"":3293},{""relative-x"":0.5140625,""relative-y"":0.425,""elapse-time"":3338},{""relative-x"":0.44453125,""relative-y"":0.75375,""elapse-time"":3390},{""relative-x"":0.22265625,""relative-y"":0.83375,""elapse-time"":3436},{""relative-x"":0.44453125,""relative-y"":0.75375,""elapse-time"":3481},{""relative-x"":0.665625,""relative-y"":0.36875,""elapse-time"":3526},{""relative-x"":0.3578125,""relative-y"":0.81875,""elapse-time"":3580},{""relative-x"":0.2984375,""relative-y"":0.75625,""elapse-time"":3631},{""relative-x"":0.43828125,""relative-y"":0.30375,""elapse-time"":3681},{""relative-x"":0.5140625,""relative-y"":0.8275,""elapse-time"":3726},{""relative-x"":0.5203125,""relative-y"":0.66875,""elapse-time"":3776},{""relative-x"":0.21640625,""relative-y"":0.53625,""elapse-time"":3822},{""relative-x"":0.665625,""relative-y"":0.36875,""elapse-time"":3868.0000000001164},{""relative-x"":0.590625,""relative-y"":0.7425,""elapse-time"":3914},{""relative-x"":0.2109375,""relative-y"":0.23875,""elapse-time"":3965},{""relative-x"":0.22265625,""relative-y"":0.83375,""elapse-time"":4013},{""relative-x"":0.66640625,""relative-y"":0.65875,""elapse-time"":4059},{""relative-x"":0.69296875,""relative-y"":0.86875,""elapse-time"":4105},{""relative-x"":0.48671875,""relative-y"":0.685,""elapse-time"":4158},{""relative-x"":0.48671875,""relative-y"":0.685,""elapse-time"":4205},{""relative-x"":0.434375,""relative-y"":0.59625,""elapse-time"":4256},{""relative-x"":0.51015625,""relative-y"":0.52375,""elapse-time"":4307},{""relative-x"":0.58203125,""relative-y"":0.45375,""elapse-time"":4366},{""relative-x"":0.58203125,""relative-y"":0.45375,""elapse-time"":4413},{""relative-x"":0.58203125,""relative-y"":0.45375,""elapse-time"":4462},{""relative-x"":0.59921875,""relative-y"":0.4375,""elapse-time"":4511},{""relative-x"":0.43828125,""relative-y"":0.30375,""elapse-time"":4560.000000000116},{""relative-x"":0.43828125,""relative-y"":0.30375,""elapse-time"":4607}]}","""","""","""","""","""","2021-01-13 17:59:53",,"Mozilla/5.0 (Macintosh; Intel Mac OS X 10_13_6) AppleWebKit/605.1.15 (KHTML, like Gecko) Version/11.1.2 Safari/605.1.15",Macintosh,Safari,11.1.2,"OS X",10_13_6
4,1,null,"""","""","""","""",html-keyboard-response,152,654967,0.0-21.0-2.0-0.7,753,0,0,"Integrierte iSight-Kamera",0x2460000005ac8507,30.00003000003,1,480,640,"""",null,"""","""","""","""","""","""","""","""","""","""","""","2021-01-13 17:59:53",,"Mozilla/5.0 (Macintosh; Intel Mac OS X 10_13_6) AppleWebKit/605.1.15 (KHTML, like Gecko) Version/11.1.2 Safari/605.1.15",Macintosh,Safari,11.1.2,"OS X",10_13_6
