run_id,condition,rt,stimulus,key_press,trial_type,trial_index,time_elapsed,internal_node_id,subject,chinFirst,choiceTask_amountLeftFirst,webcam_label,webcam_fps,webcam_height,webcam_width,chosenAmount,chosenDelay,button_pressed,window_width,window_height,responses,chin,success,x_pos,y_pos,task_nr,et_data,trial_duration,option_topLeft,option_bottomLeft,option_topRight,option_bottomRight,recorded_at,ip,user_agent,device,browser,browser_version,platform,platform_version
2,1,null,"""",null,html-keyboard-response,0,107,0.0-0.0,637,1,1,"Integrierte iSight-Kamera",30,0,0,$2,Today,"""","""","""","""","""","""","""","""","""","""","""","""","""","""","""","2021-01-16 13:14:28",,"Mozilla/5.0 (Macintosh; Intel Mac OS X 10_13_6) AppleWebKit/605.1.15 (KHTML, like Gecko) Version/11.1.2 Safari/605.1.15",Macintosh,Safari,11.1.2,"OS X",10_13_6
2,1,2955,"<div style=""position: fixed; display: inline-block; top: 20%; right: 20%; text-align: right;""><img src=""fu_logo.PNG"" alt=""[FU Berlin Logo]"" style=""width: 25%;""></div><div><br><br><p><strong>Welcome, dear participant! </strong></p><p>Thank you for your interest in and your support for our research.<br> This study is run by researchers at Freie Universität Berlin. </p></div>","""",html-button-response,1,3138,0.0-1.0,637,1,1,"Integrierte iSight-Kamera",30,0,0,$2,Today,0,1280,700,"""","""","""","""","""","""","""","""","""","""","""","""","2021-01-16 13:14:28",,"Mozilla/5.0 (Macintosh; Intel Mac OS X 10_13_6) AppleWebKit/605.1.15 (KHTML, like Gecko) Version/11.1.2 Safari/605.1.15",Macintosh,Safari,11.1.2,"OS X",10_13_6
2,1,3297,"""","""",survey-html-form,2,6437,0.0-2.0,637,1,1,"Integrierte iSight-Kamera",30,0,0,$2,Today,"""","""","""","{""prolificID"":""Tim""}","""","""","""","""","""","""","""","""","""","""","""","2021-01-16 13:14:28",,"Mozilla/5.0 (Macintosh; Intel Mac OS X 10_13_6) AppleWebKit/605.1.15 (KHTML, like Gecko) Version/11.1.2 Safari/605.1.15",Macintosh,Safari,11.1.2,"OS X",10_13_6
2,1,3346.999999999998,"<p>Please, use only <strong>one monitor</strong> for this study.<br>If necessary, switch off the other monitors.</p>","""",html-button-response,3,9787,0.0-3.0,637,1,1,"Integrierte iSight-Kamera",30,0,0,$2,Today,0,"""","""","""","""","""","""","""","""","""","""","""","""","""","""","2021-01-16 13:14:28",,"Mozilla/5.0 (Macintosh; Intel Mac OS X 10_13_6) AppleWebKit/605.1.15 (KHTML, like Gecko) Version/11.1.2 Safari/605.1.15",Macintosh,Safari,11.1.2,"OS X",10_13_6
2,1,529,"<p><strong>Please turn your mobile phone into Airplane Mode and close all CPU- or data-intensive programs and websites!</strong><br> (e.g. running Youtube Videos or Torrents)</p>","""",html-button-response,4,10318,0.0-4.0,637,1,1,"Integrierte iSight-Kamera",30,0,0,$2,Today,0,"""","""","""","""","""","""","""","""","""","""","""","""","""","""","2021-01-16 13:14:28",,"Mozilla/5.0 (Macintosh; Intel Mac OS X 10_13_6) AppleWebKit/605.1.15 (KHTML, like Gecko) Version/11.1.2 Safari/605.1.15",Macintosh,Safari,11.1.2,"OS X",10_13_6
2,1,"""","""","""",eyetracking-init,5,40779,0.0-5.0,637,1,1,"Integrierte iSight-Kamera",30,0,0,$2,Today,"""",1280,700,"""",0,"""","""","""","""","""","""","""","""","""","""","2021-01-16 13:14:28",,"Mozilla/5.0 (Macintosh; Intel Mac OS X 10_13_6) AppleWebKit/605.1.15 (KHTML, like Gecko) Version/11.1.2 Safari/605.1.15",Macintosh,Safari,11.1.2,"OS X",10_13_6
2,1,null,"""",null,html-keyboard-response,6,40882,0.0-6.0,637,1,1,"Integrierte iSight-Kamera",30,0,0,$2,Today,"""","""","""","""","""","""","""","""","""","""","""","""","""","""","""","2021-01-16 13:14:28",,"Mozilla/5.0 (Macintosh; Intel Mac OS X 10_13_6) AppleWebKit/605.1.15 (KHTML, like Gecko) Version/11.1.2 Safari/605.1.15",Macintosh,Safari,11.1.2,"OS X",10_13_6
2,1,25739.999999999993,"<div style=""width: 45%; text-align: left; margin: auto;""><p><strong>For a preliminary adjustment, please consider the following instructions: </strong></p><ol><li>Sit at a table and make sure that you could later rest your elbows on it. </li><li>Sit towards a window or lamp so that there are no shadows on your face. You might additionally turn on a desk lamp for that. </li></ol></div><img src=""lightInstruct.PNG"" alt=""[Eye-Tracking-Instructions]"" style=""width: 70%;"">","""",html-button-response,7,66637,0.0-7.0,637,1,1,"Integrierte iSight-Kamera",30,0,0,$2,Today,0,"""","""","""","""","""","""","""","""","""","""","""","""","""","""","2021-01-16 13:14:28",,"Mozilla/5.0 (Macintosh; Intel Mac OS X 10_13_6) AppleWebKit/605.1.15 (KHTML, like Gecko) Version/11.1.2 Safari/605.1.15",Macintosh,Safari,11.1.2,"OS X",10_13_6
2,1,1900,"<div style=""width: 45%; text-align: left; margin: auto;""><ol start='3'><li>Check the video and stay in the highlighted rectangle so that it becomes green. </li><li>Try as much as possible to follow the instructions on these pictures and avoid moving your head. If you move too much, the calibration can fail and you might not be able to finish the study. </li><li><strong>If necessary, adjust your laptop, monitor, webcam, or chair. </strong></li></ol></div><img src=""ETInstructions.PNG"" alt=""[Eye-Tracking-Instructions]"" style=""width: 70%;"">","""",html-button-response,8,68541,0.0-8.0,637,1,1,"Integrierte iSight-Kamera",30,0,0,$2,Today,0,"""","""","""","""","""","""","""","""","""","""","""","""","""","""","2021-01-16 13:14:28",,"Mozilla/5.0 (Macintosh; Intel Mac OS X 10_13_6) AppleWebKit/605.1.15 (KHTML, like Gecko) Version/11.1.2 Safari/605.1.15",Macintosh,Safari,11.1.2,"OS X",10_13_6
2,1,null,"""",null,html-keyboard-response,9,68647,0.0-9.0,637,1,1,"Integrierte iSight-Kamera",30,0,0,$2,Today,"""","""","""","""","""","""","""","""","""","""","""","""","""","""","""","2021-01-16 13:14:28",,"Mozilla/5.0 (Macintosh; Intel Mac OS X 10_13_6) AppleWebKit/605.1.15 (KHTML, like Gecko) Version/11.1.2 Safari/605.1.15",Macintosh,Safari,11.1.2,"OS X",10_13_6
2,1,"""","""","""",fullscreen,10,71559,0.0-10.0,637,1,1,"Integrierte iSight-Kamera",30,0,0,$2,Today,"""",1280,700,"""","""",true,"""","""","""","""","""","""","""","""","""","2021-01-16 13:14:28",,"Mozilla/5.0 (Macintosh; Intel Mac OS X 10_13_6) AppleWebKit/605.1.15 (KHTML, like Gecko) Version/11.1.2 Safari/605.1.15",Macintosh,Safari,11.1.2,"OS X",10_13_6
2,1,null,"""",null,html-keyboard-response,11,71663,0.0-11.0,637,1,1,"Integrierte iSight-Kamera",30,0,0,$2,Today,"""","""","""","""","""","""","""","""","""","""","""","""","""","""","""","2021-01-16 13:14:28",,"Mozilla/5.0 (Macintosh; Intel Mac OS X 10_13_6) AppleWebKit/605.1.15 (KHTML, like Gecko) Version/11.1.2 Safari/605.1.15",Macintosh,Safari,11.1.2,"OS X",10_13_6
2,1,2829,"<div style=""width: 45%; margin: auto; text-align: justify;""><p>In order to make this measurement as accurate as possible, please rest your head on <u>one</u> of your arms, with your elbow on the desk (see image) You face may be covered a little bit but please keep your eyes visible. Get sure that you stay in the green rectangle in the video stream while doing that. </p><p>The idea is to keep your head at the same position at all time so that you <strong>only move your eyes</strong> when you look at the screen. </p></div><div style=""text-align: center;""><img src=""chinstruction.PNG"" alt=""Oh, this image cannot be displayed"" style=""width: 15%;""></div><p style=""text-align: center;"">Press Space to continue </p></div><br>",32,html-keyboard-response,12,74494,0.0-12.0,637,1,1,"Integrierte iSight-Kamera",30,0,0,$2,Today,"""","""","""","""","""","""","""","""","""","""","""","""","""","""","""","2021-01-16 13:14:28",,"Mozilla/5.0 (Macintosh; Intel Mac OS X 10_13_6) AppleWebKit/605.1.15 (KHTML, like Gecko) Version/11.1.2 Safari/605.1.15",Macintosh,Safari,11.1.2,"OS X",10_13_6
2,1,1941.0000000000146,"<p><strong>Can you stay in that pose for a while?</strong></p><p>If not, then please adjust now in order to be comfortable.</p><br><p>Press Space to continue</p>",32,html-keyboard-response,13,76437,0.0-13.0,637,1,1,"Integrierte iSight-Kamera",30,0,0,$2,Today,"""","""","""","""","""","""","""","""","""","""","""","""","""","""","""","2021-01-16 13:14:28",,"Mozilla/5.0 (Macintosh; Intel Mac OS X 10_13_6) AppleWebKit/605.1.15 (KHTML, like Gecko) Version/11.1.2 Safari/605.1.15",Macintosh,Safari,11.1.2,"OS X",10_13_6
2,1,1263,"<div style=""position: fixed; top: 30%; left: 27.5%; width: 45%; margin: auto; text-align: justify;""><p>For calibration purposes, there will be buttons (13 in total) appearing one after another. <strong>Click 1x on each button</strong> until it turns green. Then the next button will appear. This will take around <strong>3 minutes. </strong></p><p>For an accurate measurement, please <strong><u>always</u></strong> follow the mouse cursor with your eyes. </p><br><p style=""text-align: center;"">Press Space to continue</p></div>",32,html-keyboard-response,14,77701,0.0-14.0,637,1,1,"Integrierte iSight-Kamera",30,0,0,$2,Today,"""","""","""","""","""","""","""","""","""","""","""","""","""","""","""","2021-01-16 13:14:28",,"Mozilla/5.0 (Macintosh; Intel Mac OS X 10_13_6) AppleWebKit/605.1.15 (KHTML, like Gecko) Version/11.1.2 Safari/605.1.15",Macintosh,Safari,11.1.2,"OS X",10_13_6
2,1,null,"""",null,html-keyboard-response,15,77805,0.0-15.0-0.0,637,1,1,"Integrierte iSight-Kamera",30,0,0,$2,Today,"""","""","""","""","""","""","""","""","""","""","""","""","""","""","""","2021-01-16 13:14:28",,"Mozilla/5.0 (Macintosh; Intel Mac OS X 10_13_6) AppleWebKit/605.1.15 (KHTML, like Gecko) Version/11.1.2 Safari/605.1.15",Macintosh,Safari,11.1.2,"OS X",10_13_6
2,1,null,"""",null,html-keyboard-response,16,77907,0.0-15.0-1.0,637,1,1,"Integrierte iSight-Kamera",30,0,0,$2,Today,"""","""","""","""","""","""","""","""","""","""","""","""","""","""","""","2021-01-16 13:14:28",,"Mozilla/5.0 (Macintosh; Intel Mac OS X 10_13_6) AppleWebKit/605.1.15 (KHTML, like Gecko) Version/11.1.2 Safari/605.1.15",Macintosh,Safari,11.1.2,"OS X",10_13_6
2,1,null,"""",null,html-keyboard-response,17,79409,0.0-15.0-2.0-0.0,637,1,1,"Integrierte iSight-Kamera",30,0,0,$2,Today,"""","""","""","""","""","""","""","""","""","""","""","""","""","""","""","2021-01-16 13:14:28",,"Mozilla/5.0 (Macintosh; Intel Mac OS X 10_13_6) AppleWebKit/605.1.15 (KHTML, like Gecko) Version/11.1.2 Safari/605.1.15",Macintosh,Safari,11.1.2,"OS X",10_13_6
2,1,"""","""","""",eyetracking-calibration,18,83799,0.0-15.0-2.0-1.0,637,1,1,"Integrierte iSight-Kamera",30,0,0,$2,Today,"""",1280,800,"""",1,"""",0.5,0.5,0,"[{""x"":0.39069072938552096,""y"":0.6249738757091943,""t"":73035.00000000001},{""x"":0.3914703195078498,""y"":0.6246706496182425,""t"":73157.00000000001},{""x"":0.3942966326887086,""y"":0.6234728396167544,""t"":73283}]","""","""","""","""","""","2021-01-16 13:14:28",,"Mozilla/5.0 (Macintosh; Intel Mac OS X 10_13_6) AppleWebKit/605.1.15 (KHTML, like Gecko) Version/11.1.2 Safari/605.1.15",Macintosh,Safari,11.1.2,"OS X",10_13_6
2,1,null,"""",null,html-keyboard-response,19,85303,0.0-15.0-2.0-0.1,637,1,1,"Integrierte iSight-Kamera",30,0,0,$2,Today,"""","""","""","""","""","""","""","""","""","""","""","""","""","""","""","2021-01-16 13:14:28",,"Mozilla/5.0 (Macintosh; Intel Mac OS X 10_13_6) AppleWebKit/605.1.15 (KHTML, like Gecko) Version/11.1.2 Safari/605.1.15",Macintosh,Safari,11.1.2,"OS X",10_13_6
2,1,"""","""","""",eyetracking-calibration,20,86688,0.0-15.0-2.0-1.1,637,1,1,"Integrierte iSight-Kamera",30,0,0,$2,Today,"""",1280,800,"""",1,"""",0.2,0.2,0,"[{""x"":0.40123975859797295,""y"":0.6187954541432835,""t"":74894},{""x"":0.413722934714375,""y"":0.609854522284736,""t"":75043},{""x"":0.42098158095791627,""y"":0.5821609110793555,""t"":75197},{""x"":0.42049543585020777,""y"":0.5388320625983973,""t"":75333},{""x"":0.4122299775785134,""y"":0.4855198326168776,""t"":75501},{""x"":0.39760546350781756,""y"":0.42973885944789986,""t"":75675},{""x"":0.3779258136567768,""y"":0.377523984941035,""t"":75840},{""x"":0.3581573135326608,""y"":0.3333256068762322,""t"":76015},{""x"":0.3379884490506841,""y"":0.29828482700782294,""t"":76144}]","""","""","""","""","""","2021-01-16 13:14:28",,"Mozilla/5.0 (Macintosh; Intel Mac OS X 10_13_6) AppleWebKit/605.1.15 (KHTML, like Gecko) Version/11.1.2 Safari/605.1.15",Macintosh,Safari,11.1.2,"OS X",10_13_6
2,1,null,"""",null,html-keyboard-response,21,88193,0.0-15.0-2.0-0.2,637,1,1,"Integrierte iSight-Kamera",30,0,0,$2,Today,"""","""","""","""","""","""","""","""","""","""","""","""","""","""","""","2021-01-16 13:14:28",,"Mozilla/5.0 (Macintosh; Intel Mac OS X 10_13_6) AppleWebKit/605.1.15 (KHTML, like Gecko) Version/11.1.2 Safari/605.1.15",Macintosh,Safari,11.1.2,"OS X",10_13_6
2,1,"""","""","""",eyetracking-calibration,22,90927,0.0-15.0-2.0-1.2,637,1,1,"Integrierte iSight-Kamera",30,0,0,$2,Today,"""",1280,800,"""",1,"""",0.8,0.8,0,"[{""x"":0.33953183346383387,""y"":0.2941318330483488,""t"":77781},{""x"":0.3418465471032751,""y"":0.2946837587126437,""t"":77888},{""x"":0.344607813506674,""y"":0.2985955151858922,""t"":78003},{""x"":0.34758376430183147,""y"":0.3048146932189554,""t"":78137},{""x"":0.35060610003000414,""y"":0.31251288271027244,""t"":78270.00000000001},{""x"":0.3535512255099919,""y"":0.32103192313002077,""t"":78419.00000000001},{""x"":0.35632920351013364,""y"":0.3298491285659923,""t"":78568},{""x"":0.35887731981502924,""y"":0.3385562605820611,""t"":78718},{""x"":0.34818795640915406,""y"":0.33420208432133225,""t"":78906},{""x"":0.3523002357679263,""y"":0.34145474379021573,""t"":79078},{""x"":0.3643668078038048,""y"":0.35503985435291874,""t"":79222},{""x"":0.38475126278786675,""y"":0.3790338794736241,""t"":79375},{""x"":0.4126161257433714,""y"":0.4122701841918992,""t"":79501},{""x"":0.44386585581025423,""y"":0.44969107855379314,""t"":79614},{""x"":0.4777862663042042,""y"":0.48786563757339607,""t"":79765},{""x"":0.5223552893713593,""y"":0.5356474876774088,""t"":79888},{""x"":0.5670087457660032,""y"":0.5839627384583759,""t"":80012},{""x"":0.6028387545685715,""y"":0.6227041705076491,""t"":80112},{""x"":0.6370673729635284,""y"":0.6603602300419331,""t"":80215},{""x"":0.6668534824688259,""y"":0.6919539342138897,""t"":80314},{""x"":0.6892290503515478,""y"":0.715598097333116,""t"":80411}]","""","""","""","""","""","2021-01-16 13:14:28",,"Mozilla/5.0 (Macintosh; Intel Mac OS X 10_13_6) AppleWebKit/605.1.15 (KHTML, like Gecko) Version/11.1.2 Safari/605.1.15",Macintosh,Safari,11.1.2,"OS X",10_13_6
2,1,null,"""",null,html-keyboard-response,23,93932,0.0-15.0-3.0,637,1,1,"Integrierte iSight-Kamera",30,0,0,$2,Today,"""","""","""","""","""","""","""","""","""","""","""","""","""","""","""","2021-01-16 13:14:28",,"Mozilla/5.0 (Macintosh; Intel Mac OS X 10_13_6) AppleWebKit/605.1.15 (KHTML, like Gecko) Version/11.1.2 Safari/605.1.15",Macintosh,Safari,11.1.2,"OS X",10_13_6
2,1,null,"""",null,html-keyboard-response,24,94035,0.0-15.0-4.0,637,1,1,"Integrierte iSight-Kamera",30,0,0,$2,Today,"""","""","""","""","""","""","""","""","""","""","""","""","""","""","""","2021-01-16 13:14:28",,"Mozilla/5.0 (Macintosh; Intel Mac OS X 10_13_6) AppleWebKit/605.1.15 (KHTML, like Gecko) Version/11.1.2 Safari/605.1.15",Macintosh,Safari,11.1.2,"OS X",10_13_6
2,1,null,"""",null,html-keyboard-response,25,94140,0.0-15.0-5.0,637,1,1,"Integrierte iSight-Kamera",30,0,0,$2,Today,"""","""","""","""","""","""","""","""","""","""","""","""","""","""","""","2021-01-16 13:14:28",,"Mozilla/5.0 (Macintosh; Intel Mac OS X 10_13_6) AppleWebKit/605.1.15 (KHTML, like Gecko) Version/11.1.2 Safari/605.1.15",Macintosh,Safari,11.1.2,"OS X",10_13_6
2,1,6099,"<div style=""text-align: center; position: fixed; top: 40%; left: 10%; width: 80%;""><p style='font-size: 30px;'><strong>Don't move! </strong><br></p><p style='font-size: 18px;'>Keep your head in the instructed position for the next task. </p><br><p>Press Space to continue </p>",32,html-keyboard-response,26,100239,0.0-16.0,637,1,1,"Integrierte iSight-Kamera",30,0,0,$2,Today,"""","""","""","""","""","""","""","""","""","""","""","""","""","""","""","2021-01-16 13:14:28",,"Mozilla/5.0 (Macintosh; Intel Mac OS X 10_13_6) AppleWebKit/605.1.15 (KHTML, like Gecko) Version/11.1.2 Safari/605.1.15",Macintosh,Safari,11.1.2,"OS X",10_13_6
2,1,751,"<div style=""text-align: center; position: fixed; top: 35%; left: 10%; width: 80%;  font-size: 60px;""><p><strong>Task 1 </strong></p><p style='font-size: 18px;'>Press Space to continue</p></div>",32,html-keyboard-response,27,100996,0.0-17.0,637,1,1,"Integrierte iSight-Kamera",30,0,0,$2,Today,"""","""","""","""","""","""","""","""","""","""","""","""","""","""","""","2021-01-16 13:14:28",,"Mozilla/5.0 (Macintosh; Intel Mac OS X 10_13_6) AppleWebKit/605.1.15 (KHTML, like Gecko) Version/11.1.2 Safari/605.1.15",Macintosh,Safari,11.1.2,"OS X",10_13_6
2,1,623,"<div style=""text-align: center; position: fixed; top: 40%; left: 10%; width: 80%;""><p>For measurement purposes, <strong>dots</strong> (9 in total) will be appearing on the next page one after another. First, <u>look</u> at the <strong>fixation cross</strong> in the center. When the cross disappears, <strong>look for 5 seconds at each dot</strong> that will appear randomly on the screen.</p><p>Press Space to continue</p></div>",32,html-keyboard-response,28,101620,0.0-18.0,637,1,1,"Integrierte iSight-Kamera",30,0,0,$2,Today,"""","""","""","""","""","""","""","""","""","""","""","""","""","""","""","2021-01-16 13:14:28",,"Mozilla/5.0 (Macintosh; Intel Mac OS X 10_13_6) AppleWebKit/605.1.15 (KHTML, like Gecko) Version/11.1.2 Safari/605.1.15",Macintosh,Safari,11.1.2,"OS X",10_13_6
2,1,null,"""",null,html-keyboard-response,29,101722,0.0-19.0-0.0,637,1,1,"Integrierte iSight-Kamera",30,0,0,$2,Today,"""","""","""","""","""","""","""","""","""","""","""","""","""","""","""","2021-01-16 13:14:28",,"Mozilla/5.0 (Macintosh; Intel Mac OS X 10_13_6) AppleWebKit/605.1.15 (KHTML, like Gecko) Version/11.1.2 Safari/605.1.15",Macintosh,Safari,11.1.2,"OS X",10_13_6
2,1,null,"""",null,html-keyboard-response,30,101824,0.0-19.0-1.0,637,1,1,"Integrierte iSight-Kamera",30,0,0,$2,Today,"""","""","""","""","""","""","""","""","""","""","""","""","""","""","""","2021-01-16 13:14:28",,"Mozilla/5.0 (Macintosh; Intel Mac OS X 10_13_6) AppleWebKit/605.1.15 (KHTML, like Gecko) Version/11.1.2 Safari/605.1.15",Macintosh,Safari,11.1.2,"OS X",10_13_6
2,1,null,"""",null,html-keyboard-response,31,101926,0.0-19.0-2.0,637,1,1,"Integrierte iSight-Kamera",30,0,0,$2,Today,"""","""","""","""","""","""","""","""","""","""","""","""","""","""","""","2021-01-16 13:14:28",,"Mozilla/5.0 (Macintosh; Intel Mac OS X 10_13_6) AppleWebKit/605.1.15 (KHTML, like Gecko) Version/11.1.2 Safari/605.1.15",Macintosh,Safari,11.1.2,"OS X",10_13_6
2,1,null,"""",null,html-keyboard-response,32,103427,0.0-19.0-3.0-0.0,637,1,1,"Integrierte iSight-Kamera",30,0,0,$2,Today,"""","""","""","""","""","""","""","""","""","""","""","""","""","""","""","2021-01-16 13:14:28",,"Mozilla/5.0 (Macintosh; Intel Mac OS X 10_13_6) AppleWebKit/605.1.15 (KHTML, like Gecko) Version/11.1.2 Safari/605.1.15",Macintosh,Safari,11.1.2,"OS X",10_13_6
2,1,"""","""","""",eyetracking-fix-object,33,104956,0.0-19.0-3.0-1.0,637,1,1,"Integrierte iSight-Kamera",30,0,0,$2,Today,"""",1280,800,"""",1,"""",0.5,0.5,1,"[{""x"":0.6455421471873377,""y"":0.6699508289565584,""t"":93020.00000000001},{""x"":0.6073173127275748,""y"":0.6299417843631542,""t"":93344},{""x"":0.5714429632690486,""y"":0.5923799036647971,""t"":93660.00000000001},{""x"":0.5411361055531444,""y"":0.5604828789234051,""t"":93825},{""x"":0.5187491071977555,""y"":0.5367979955005973,""t"":93974},{""x"":0.49891997479932576,""y"":0.5157523076480214,""t"":94141},{""x"":0.4828061555587394,""y"":0.49859959227929723,""t"":94274},{""x"":0.4700739091828929,""y"":0.4850007855638291,""t"":94409}]",1500,"""","""","""","""","2021-01-16 13:14:28",,"Mozilla/5.0 (Macintosh; Intel Mac OS X 10_13_6) AppleWebKit/605.1.15 (KHTML, like Gecko) Version/11.1.2 Safari/605.1.15",Macintosh,Safari,11.1.2,"OS X",10_13_6
2,1,"""","""","""",eyetracking-fix-object,34,107064,0.0-19.0-3.0-2.0,637,1,1,"Integrierte iSight-Kamera",30,0,0,$2,Today,"""",1280,800,"""",1,"""",0.2,0.2,1,"[{""x"":0.46156965496693747,""y"":0.47587333560003314,""t"":94544.00000000001},{""x"":0.45425602564837775,""y"":0.46798968968141574,""t"":94666.00000000001},{""x"":0.44915232439271346,""y"":0.462447227982387,""t"":94763},{""x"":0.44588244257332904,""y"":0.4588528790121812,""t"":94872},{""x"":0.4440960232687755,""y"":0.4568392324948304,""t"":94969},{""x"":0.4434756088224276,""y"":0.4560723865456767,""t"":95072},{""x"":0.4437406137982576,""y"":0.45625641302179887,""t"":95167},{""x"":0.44464879634184956,""y"":0.4571351487414537,""t"":95271},{""x"":0.4459958242824974,""y"":0.45849194137498567,""t"":95374},{""x"":0.4476134519118073,""y"":0.4601478954758639,""t"":95470},{""x"":0.4493667434552039,""y"":0.4619590808585206,""t"":95566},{""x"":0.45115070290746717,""y"":0.46381308567393476,""t"":95669.00000000001},{""x"":0.45288659926072034,""y"":0.4656252223984136,""t"":95772},{""x"":0.4545182125430468,""y"":0.4673346280009911,""t"":95869},{""x"":0.4560081701986083,""y"":0.4689004405739008,""t"":95958},{""x"":0.45733449537150656,""y"":0.4702981839529445,""t"":96067},{""x"":0.458487448432491,""y"":0.47151644917790975,""t"":96166.00000000001},{""x"":0.45946671017397406,""y"":0.4725539266208332,""t"":96272},{""x"":0.46027892888338623,""y"":0.4734168146237722,""t"":96363},{""x"":0.4609356332716967,""y"":0.4741166088034558,""t"":96454},{""x"":0.4614514982180733,""y"":0.474668260006647,""t"":96550.00000000001}]",2000,"""","""","""","""","2021-01-16 13:14:28",,"Mozilla/5.0 (Macintosh; Intel Mac OS X 10_13_6) AppleWebKit/605.1.15 (KHTML, like Gecko) Version/11.1.2 Safari/605.1.15",Macintosh,Safari,11.1.2,"OS X",10_13_6
2,1,null,"""",null,html-keyboard-response,35,108569,0.0-19.0-3.0-0.1,637,1,1,"Integrierte iSight-Kamera",30,0,0,$2,Today,"""","""","""","""","""","""","""","""","""","""","""","""","""","""","""","2021-01-16 13:14:28",,"Mozilla/5.0 (Macintosh; Intel Mac OS X 10_13_6) AppleWebKit/605.1.15 (KHTML, like Gecko) Version/11.1.2 Safari/605.1.15",Macintosh,Safari,11.1.2,"OS X",10_13_6
2,1,"""","""","""",eyetracking-fix-object,36,110081,0.0-19.0-3.0-1.1,637,1,1,"Integrierte iSight-Kamera",30,0,0,$2,Today,"""",1280,800,"""",1,"""",0.5,0.5,1,"[{""x"":0.4618429397222921,""y"":0.4750886774354646,""t"":98157.00000000001},{""x"":0.4621270085886584,""y"":0.4753955459280611,""t"":98316},{""x"":0.46232054850235105,""y"":0.4756064220468432,""t"":98447},{""x"":0.46243958266798285,""y"":0.47573807182800054,""t"":98596},{""x"":0.4624988934992412,""y"":0.475806013190469,""t"":98762},{""x"":0.4625117614914072,""y"":0.47582422757547177,""t"":98912},{""x"":0.4624898319637708,""y"":0.475805007953245,""t"":99060},{""x"":0.46244308148646385,""y"":0.47575891353006095,""t"":99210},{""x"":0.4623798592322754,""y"":0.4756948050243687,""t"":99343},{""x"":0.46230698200468456,""y"":0.4756199380268651,""t"":99476},{""x"":0.46222986512734165,""y"":0.4755400955422195,""t"":99576}]",1500,"""","""","""","""","2021-01-16 13:14:28",,"Mozilla/5.0 (Macintosh; Intel Mac OS X 10_13_6) AppleWebKit/605.1.15 (KHTML, like Gecko) Version/11.1.2 Safari/605.1.15",Macintosh,Safari,11.1.2,"OS X",10_13_6
2,1,"""","""","""",eyetracking-fix-object,37,112141,0.0-19.0-3.0-2.1,637,1,1,"Integrierte iSight-Kamera",30,0,0,$2,Today,"""",1280,800,"""",1,"""",0.8,0.8,1,"[{""x"":0.462152674621525,""y"":0.4754597442045083,""t"":99672.00000000001},{""x"":0.46207848906865145,""y"":0.47538220177899065,""t"":99769},{""x"":0.4620094622078653,""y"":0.4753098063576458,""t"":99859},{""x"":0.46194697963204356,""y"":0.47524408009940156,""t"":99960},{""x"":0.4618918049164444,""y"":0.47518588245329185,""t"":100051},{""x"":0.4618442121542037,""y"":0.4751355495444081,""t"":100157.00000000001},{""x"":0.46180410320355375,""y"":0.47509301781988983,""t"":100251},{""x"":0.4617711090012226,""y"":0.47505793117402434,""t"":100356},{""x"":0.46174467509693723,""y"":0.47502973163069634,""t"":100453},{""x"":0.46172413214877406,""y"":0.47500773429262083,""t"":100555},{""x"":0.46170875252154164,""y"":0.4749911877046788,""t"":100653},{""x"":0.46169779438222075,""y"":0.47497932105647417,""t"":100757},{""x"":0.46169053481716726,""y"":0.4749713797978456,""t"":100851},{""x"":0.4616862935318314,""y"":0.47496665128841087,""t"":100954},{""x"":0.46168444865849906,""y"":0.47496448207292535,""t"":101043},{""x"":0.4616844461110842,""y"":0.47496428828952375,""t"":101141},{""x"":0.461685803805118,""y"":0.4749655605956362,""t"":101234},{""x"":0.46168811191959636,""y"":0.47496786485122106,""t"":101341},{""x"":0.4616910302262596,""y"":0.47497083964265563,""t"":101433},{""x"":0.46169428335968277,""y"":0.47497419157230625,""t"":101542},{""x"":0.46169765475458363,""y"":0.4749776890852473,""t"":101640}]",2000,"""","""","""","""","2021-01-16 13:14:28",,"Mozilla/5.0 (Macintosh; Intel Mac OS X 10_13_6) AppleWebKit/605.1.15 (KHTML, like Gecko) Version/11.1.2 Safari/605.1.15",Macintosh,Safari,11.1.2,"OS X",10_13_6
2,1,null,"""",null,html-keyboard-response,38,113642,0.0-19.0-3.0-0.2,637,1,1,"Integrierte iSight-Kamera",30,0,0,$2,Today,"""","""","""","""","""","""","""","""","""","""","""","""","""","""","""","2021-01-16 13:14:28",,"Mozilla/5.0 (Macintosh; Intel Mac OS X 10_13_6) AppleWebKit/605.1.15 (KHTML, like Gecko) Version/11.1.2 Safari/605.1.15",Macintosh,Safari,11.1.2,"OS X",10_13_6
2,1,"""","""","""",eyetracking-fix-object,39,115213,0.0-19.0-3.0-1.2,637,1,1,"Integrierte iSight-Kamera",30,0,0,$2,Today,"""",1280,800,"""",1,"""",0.5,0.5,1,"[{""x"":0.46170097983945635,""y"":0.47498115546066344,""t"":103238},{""x"":0.461704138950929,""y"":0.47498446146433354,""t"":103383.00000000001},{""x"":0.4617070503227656,""y"":0.47498751804210476,""t"":103500},{""x"":0.46170966340784503,""y"":0.47499026933321203,""t"":103616},{""x"":0.46171195271063975,""y"":0.474992686196634,""t"":103731},{""x"":0.46171391224102143,""y"":0.47499476037278254,""t"":103848},{""x"":0.46171555064659053,""y"":0.47499649934563415,""t"":103964},{""x"":0.4617168870388627,""y"":0.4749979219256077,""t"":104080},{""x"":0.4617179474971339,""y"":0.4749990545396168,""t"":104196},{""x"":0.46171876221122055,""y"":0.4749999281902475,""t"":104312.00000000001},{""x"":0.4617193632091071,""y"":0.47500057602944984,""t"":104412},{""x"":0.46171978260647545,""y"":0.47500103148207323,""t"":104512},{""x"":0.4617200513109032,""y"":0.47500132684970564,""t"":104612},{""x"":0.4617201981130889,""y"":0.47500149232444405,""t"":104711}]",1500,"""","""","""","""","2021-01-16 13:14:28",,"Mozilla/5.0 (Macintosh; Intel Mac OS X 10_13_6) AppleWebKit/605.1.15 (KHTML, like Gecko) Version/11.1.2 Safari/605.1.15",Macintosh,Safari,11.1.2,"OS X",10_13_6
2,1,"""","""","""",eyetracking-fix-object,40,117263,0.0-19.0-3.0-2.2,637,1,1,"Integrierte iSight-Kamera",30,0,0,$2,Today,"""",1280,800,"""",1,"""",0.5,0.5,1,"[{""x"":0.4617202490998259,""y"":0.4750015553443929,""t"":104803.00000000001},{""x"":0.4617202273277816,""y"":0.4750015402269955,""t"":104896},{""x"":0.461720152702751,""y"":0.47500146802201404,""t"":104986},{""x"":0.46172004201539146,""y"":0.4750013565324979,""t"":105094},{""x"":0.46171990909106875,""y"":0.4750012204589414,""t"":105191},{""x"":0.4617197650180077,""y"":0.47500107162867594,""t"":105293},{""x"":0.4617196184242123,""y"":0.4750009192790974,""t"":105388},{""x"":0.46171947577941436,""y"":0.4750007703694125,""t"":105494},{""x"":0.46171934170353424,""y"":0.4750006299010854,""t"":105586},{""x"":0.4617192192677228,""y"":0.4750005012320062,""t"":105691},{""x"":0.4617191102779957,""y"":0.4750003863735739,""t"":105781},{""x"":0.46171901553477446,""y"":0.4750002862633901,""t"":105874},{""x"":0.4617189350643535,""y"":0.47500020100914037,""t"":105971},{""x"":0.46171886832046827,""y"":0.47500013010153697,""t"":106073},{""x"":0.4617188143557983,""y"":0.475000072595982,""t"":106164},{""x"":0.46171877196448047,""y"":0.4750000272639372,""t"":106263},{""x"":0.4617187397975681,""y"":0.4749999927159292,""t"":106354},{""x"":0.4617187164539433,""y"":0.4749999674987403,""t"":106460},{""x"":0.461718700549502,""y"":0.4749999501696875,""t"":106557},{""x"":0.46171869076755784,""y"":0.4749999393510436,""t"":106658},{""x"":0.46171868589338166,""y"":0.47499993376764055,""t"":106760}]",2000,"""","""","""","""","2021-01-16 13:14:28",,"Mozilla/5.0 (Macintosh; Intel Mac OS X 10_13_6) AppleWebKit/605.1.15 (KHTML, like Gecko) Version/11.1.2 Safari/605.1.15",Macintosh,Safari,11.1.2,"OS X",10_13_6
2,1,null,"""",null,html-keyboard-response,41,120267,0.0-19.0-4.0,637,1,1,"Integrierte iSight-Kamera",30,0,0,$2,Today,"""","""","""","""","""","""","""","""","""","""","""","""","""","""","""","2021-01-16 13:14:28",,"Mozilla/5.0 (Macintosh; Intel Mac OS X 10_13_6) AppleWebKit/605.1.15 (KHTML, like Gecko) Version/11.1.2 Safari/605.1.15",Macintosh,Safari,11.1.2,"OS X",10_13_6
2,1,null,"""",null,html-keyboard-response,42,120370,0.0-19.0-5.0,637,1,1,"Integrierte iSight-Kamera",30,0,0,$2,Today,"""","""","""","""","""","""","""","""","""","""","""","""","""","""","""","2021-01-16 13:14:28",,"Mozilla/5.0 (Macintosh; Intel Mac OS X 10_13_6) AppleWebKit/605.1.15 (KHTML, like Gecko) Version/11.1.2 Safari/605.1.15",Macintosh,Safari,11.1.2,"OS X",10_13_6
2,1,null,"""",null,html-keyboard-response,43,120481,0.0-19.0-6.0,637,1,1,"Integrierte iSight-Kamera",30,0,0,$2,Today,"""","""","""","""","""","""","""","""","""","""","""","""","""","""","""","2021-01-16 13:14:28",,"Mozilla/5.0 (Macintosh; Intel Mac OS X 10_13_6) AppleWebKit/605.1.15 (KHTML, like Gecko) Version/11.1.2 Safari/605.1.15",Macintosh,Safari,11.1.2,"OS X",10_13_6
2,1,null,"""",null,html-keyboard-response,44,120584,0.0-19.0-7.0,637,1,1,"Integrierte iSight-Kamera",30,0,0,$2,Today,"""","""","""","""","""","""","""","""","""","""","""","""","""","""","""","2021-01-16 13:14:28",,"Mozilla/5.0 (Macintosh; Intel Mac OS X 10_13_6) AppleWebKit/605.1.15 (KHTML, like Gecko) Version/11.1.2 Safari/605.1.15",Macintosh,Safari,11.1.2,"OS X",10_13_6
2,1,2438.9999999999854,"<div style=""text-align: center; position: fixed; top: 40%; left: 10%; width: 80%;""><p style='font-size: 30px;'><strong>Don't move! </strong><br></p><p style='font-size: 18px;'>Keep your head in the instructed position for the next task. </p><br><p>Press Space to continue </p>",32,html-keyboard-response,45,123024,0.0-20.0,637,1,1,"Integrierte iSight-Kamera",30,0,0,$2,Today,"""","""","""","""","""","""","""","""","""","""","""","""","""","""","""","2021-01-16 13:14:28",,"Mozilla/5.0 (Macintosh; Intel Mac OS X 10_13_6) AppleWebKit/605.1.15 (KHTML, like Gecko) Version/11.1.2 Safari/605.1.15",Macintosh,Safari,11.1.2,"OS X",10_13_6
2,1,482,"<div style=""text-align: center; position: fixed; top: 35%; left: 10%; width: 80%;""><p style=""font-size: 18px;"">You completed the study to </p><p style=""font-size: 40px; margin: 10px;""><strong>10% </strong></p><br><p style='font-size: 18px;'>Press Space to continue</p></div>",32,html-keyboard-response,46,123511,0.0-21.0,637,1,1,"Integrierte iSight-Kamera",30,0,0,$2,Today,"""","""","""","""","""","""","""","""","""","""","""","""","""","""","""","2021-01-16 13:14:28",,"Mozilla/5.0 (Macintosh; Intel Mac OS X 10_13_6) AppleWebKit/605.1.15 (KHTML, like Gecko) Version/11.1.2 Safari/605.1.15",Macintosh,Safari,11.1.2,"OS X",10_13_6
2,1,438.00000000001455,"<div style=""text-align: center; position: fixed; top: 35%; left: 10%; width: 80%;  font-size: 60px;""><p><strong>Task 2 </strong></p><p style='font-size: 18px;'>Press Space to continue</p></div>",32,html-keyboard-response,47,123951,0.0-22.0,637,1,1,"Integrierte iSight-Kamera",30,0,0,$2,Today,"""","""","""","""","""","""","""","""","""","""","""","""","""","""","""","2021-01-16 13:14:28",,"Mozilla/5.0 (Macintosh; Intel Mac OS X 10_13_6) AppleWebKit/605.1.15 (KHTML, like Gecko) Version/11.1.2 Safari/605.1.15",Macintosh,Safari,11.1.2,"OS X",10_13_6
2,1,1014,"<div style=""width: 45%; margin: auto; text-align: justify;""><p>For this task, we will ask you to make <strong>repeated choices between two options</strong> on the top and the bottom of the screen. One side at both options contains a <strong>reward</strong>. The other side on both options contains a <strong>delay</strong> corresponding to the respective reward.</p><p>For example, you can decide between $5 in 180 days vs $2 today. Press the <strong>upwards arrow key &uarr;</strong> to choose the top option. Press the <strong>downwards arrow key &darr;</strong> for the bottom option.</p><p>There will be 4 choices, that will take <strong>ca. 7 minutes in total.</strong> We will inform you about your progress.</p></div><div style=""text-align: center;""><img src=""choiceTask.PNG"" alt=""[Choice Task Instruction]"" style=""width: 20%;""></div><div style=""text-align: center;""><p>Press Space to continue</p></div>",32,html-keyboard-response,48,124967,0.0-23.0-0.0,637,1,1,"Integrierte iSight-Kamera",30,0,0,$2,Today,"""","""","""","""","""","""","""","""","""","""","""","""","""","""","""","2021-01-16 13:14:28",,"Mozilla/5.0 (Macintosh; Intel Mac OS X 10_13_6) AppleWebKit/605.1.15 (KHTML, like Gecko) Version/11.1.2 Safari/605.1.15",Macintosh,Safari,11.1.2,"OS X",10_13_6
2,1,830,"<div style=""width: 45%; margin: auto; text-align: justify;""><p>The chosen option will be assigned to a lottery pot of which one reward will be randomly chosen and <strong>sent to you as a bonus payment.</strong></p><p>Press the <strong>upwards arrow key &uarr;</strong> for the top option.<br> <p>Press the <strong>downwards arrow key &darr;</strong> for the bottom option.</p></div><div><p>Press Space to continue</p></div>",32,html-keyboard-response,49,125799,0.0-23.0-1.0,637,1,1,"Integrierte iSight-Kamera",30,0,0,$2,Today,"""","""","""","""","""","""","""","""","""","""","""","""","""","""","""","2021-01-16 13:14:28",,"Mozilla/5.0 (Macintosh; Intel Mac OS X 10_13_6) AppleWebKit/605.1.15 (KHTML, like Gecko) Version/11.1.2 Safari/605.1.15",Macintosh,Safari,11.1.2,"OS X",10_13_6
2,1,null,"""",null,html-keyboard-response,50,125905,0.0-23.0-2.0,637,1,1,"Integrierte iSight-Kamera",30,0,0,$2,Today,"""","""","""","""","""","""","""","""","""","""","""","""","""","""","""","2021-01-16 13:14:28",,"Mozilla/5.0 (Macintosh; Intel Mac OS X 10_13_6) AppleWebKit/605.1.15 (KHTML, like Gecko) Version/11.1.2 Safari/605.1.15",Macintosh,Safari,11.1.2,"OS X",10_13_6
2,1,null,"""",null,html-keyboard-response,51,126007,0.0-23.0-3.0,637,1,1,"Integrierte iSight-Kamera",30,0,0,$2,Today,"""","""","""","""","""","""","""","""","""","""","""","""","""","""","""","2021-01-16 13:14:28",,"Mozilla/5.0 (Macintosh; Intel Mac OS X 10_13_6) AppleWebKit/605.1.15 (KHTML, like Gecko) Version/11.1.2 Safari/605.1.15",Macintosh,Safari,11.1.2,"OS X",10_13_6
2,1,null,"""",null,html-keyboard-response,52,126109,0.0-23.0-4.0,637,1,1,"Integrierte iSight-Kamera",30,0,0,$2,Today,"""","""","""","""","""","""","""","""","""","""","""","""","""","""","""","2021-01-16 13:14:28",,"Mozilla/5.0 (Macintosh; Intel Mac OS X 10_13_6) AppleWebKit/605.1.15 (KHTML, like Gecko) Version/11.1.2 Safari/605.1.15",Macintosh,Safari,11.1.2,"OS X",10_13_6
2,1,null,"""",null,html-keyboard-response,53,127611,0.0-23.0-5.0-0.0,637,1,1,"Integrierte iSight-Kamera",30,0,0,$2,Today,"""","""","""","""","""","""","""","""","""","""","""","""","""","""","""","2021-01-16 13:14:28",,"Mozilla/5.0 (Macintosh; Intel Mac OS X 10_13_6) AppleWebKit/605.1.15 (KHTML, like Gecko) Version/11.1.2 Safari/605.1.15",Macintosh,Safari,11.1.2,"OS X",10_13_6
2,1,"""","""","""",eyetracking-fix-object,54,129228,0.0-23.0-5.0-1.0,637,1,1,"Integrierte iSight-Kamera",30,0,0,$2,Today,"""",1280,800,"""",1,"""",0.5,0.5,2,"[{""x"":0.4514949951885067,""y"":0.4645308740718805,""t"":117201},{""x"":0.443008615305067,""y"":0.45595859771003056,""t"":117381},{""x"":0.44148847098088656,""y"":0.45441048417182023,""t"":117527},{""x"":0.4392599411160198,""y"":0.4520813681907805,""t"":117843.00000000003},{""x"":0.4388646574755792,""y"":0.4516870674940857,""t"":118109},{""x"":0.4345034658668022,""y"":0.4473732962548332,""t"":118259},{""x"":0.43532486377489654,""y"":0.4481989218105508,""t"":118408},{""x"":0.4320022095069268,""y"":0.44492403641218736,""t"":118557},{""x"":0.4336894649864476,""y"":0.44661371603657796,""t"":118690}]",1500,"""","""","""","""","2021-01-16 13:14:28",,"Mozilla/5.0 (Macintosh; Intel Mac OS X 10_13_6) AppleWebKit/605.1.15 (KHTML, like Gecko) Version/11.1.2 Safari/605.1.15",Macintosh,Safari,11.1.2,"OS X",10_13_6
2,1,2672,"""",38,eyetracking-choice,55,131912,0.0-23.0-5.0-2.0,637,1,1,"Integrierte iSight-Kamera",30,0,0,$2,Today,"""",1280,800,"""",1,"""","""","""",2,"[{""x"":0.431070866631854,""y"":0.44403956576075676,""t"":118822},{""x"":0.4333148201146331,""y"":0.4462816340376666,""t"":118960},{""x"":0.4311220655635649,""y"":0.44412845918059574,""t"":119060},{""x"":0.4336783790805677,""y"":0.44667779933684215,""t"":119172},{""x"":0.4317018226546624,""y"":0.44473577385971963,""t"":119267},{""x"":0.43439477186824504,""y"":0.4474169301606486,""t"":119371},{""x"":0.43249069698552933,""y"":0.4455429268967028,""t"":119460},{""x"":0.4352058917486802,""y"":0.44824231209723103,""t"":119553},{""x"":0.4332860928469301,""y"":0.4463490541761535,""t"":119643},{""x"":0.43595815485706196,""y"":0.4490022747259473,""t"":119753},{""x"":0.43397669755042034,""y"":0.4470448148730631,""t"":119847},{""x"":0.4365758678801653,""y"":0.44962306157504367,""t"":119952},{""x"":0.4345161145974554,""y"":0.4475856467112395,""t"":120048},{""x"":0.4370361022268624,""y"":0.4500834298185649,""t"":120152},{""x"":0.43489964986677343,""y"":0.4479683649202266,""t"":120251},{""x"":0.43734781184589855,""y"":0.4503936526935193,""t"":120351},{""x"":0.43514597844202696,""y"":0.44821277126610637,""t"":120445},{""x"":0.437536108523333,""y"":0.4505797818185136,""t"":120550},{""x"":0.43528396889459875,""y"":0.4483484989578633,""t"":120641},{""x"":0.437631490210362,""y"":0.45067292013547605,""t"":120749},{""x"":0.4353441133706671,""y"":0.44840650329159615,""t"":120841},{""x"":0.4376632362645155,""y"":0.45070268707840055,""t"":120949},{""x"":0.43535363542179084,""y"":0.44841424355511367,""t"":121041},{""x"":0.43765597353227237,""y"":0.4506938588554015,""t"":121137},{""x"":0.43533426877373654,""y"":0.4483935331480374,""t"":121229},{""x"":0.4376284384466535,""y"":0.450665196966976,""t"":121319},{""x"":0.43530179445178574,""y"":0.44836013685517545,""t"":121409}]",null,$2,$4.5,Today,"7 days","2021-01-16 13:14:28",,"Mozilla/5.0 (Macintosh; Intel Mac OS X 10_13_6) AppleWebKit/605.1.15 (KHTML, like Gecko) Version/11.1.2 Safari/605.1.15",Macintosh,Safari,11.1.2,"OS X",10_13_6
2,1,null,"""",null,html-keyboard-response,56,133413,0.0-23.0-5.0-0.1,637,1,1,"Integrierte iSight-Kamera",30,0,0,$2,Today,"""","""","""","""","""","""","""","""","""","""","""","""","""","""","""","2021-01-16 13:14:28",,"Mozilla/5.0 (Macintosh; Intel Mac OS X 10_13_6) AppleWebKit/605.1.15 (KHTML, like Gecko) Version/11.1.2 Safari/605.1.15",Macintosh,Safari,11.1.2,"OS X",10_13_6
2,1,"""","""","""",eyetracking-fix-object,57,134985,0.0-23.0-5.0-1.1,637,1,1,"Integrierte iSight-Kamera",30,0,0,$2,Today,"""",1280,800,"""",1,"""",0.5,0.5,2,"[{""x"":0.43759360468021774,""y"":0.45062962899230535,""t"":123022},{""x"":0.4352665993453984,""y"":0.44832437525983104,""t"":123162},{""x"":0.4375595377026741,""y"":0.4505951418003107,""t"":123311},{""x"":0.4352347154206896,""y"":0.4482921957657353,""t"":123443},{""x"":0.4375305291317887,""y"":0.4505659413965681,""t"":123593.00000000003},{""x"":0.43520897935150593,""y"":0.4482663520525901,""t"":123742.00000000003},{""x"":0.4375082290681894,""y"":0.4505436001097223,""t"":123892},{""x"":0.4351900998240022,""y"":0.44824748197230785,""t"":124058},{""x"":0.4374926230890928,""y"":0.450528040612089,""t"":124191},{""x"":0.43517752913481733,""y"":0.44823498326377587,""t"":124324},{""x"":0.4374827914914615,""y"":0.4505182969676602,""t"":124473}]",1500,"""","""","""","""","2021-01-16 13:14:28",,"Mozilla/5.0 (Macintosh; Intel Mac OS X 10_13_6) AppleWebKit/605.1.15 (KHTML, like Gecko) Version/11.1.2 Safari/605.1.15",Macintosh,Safari,11.1.2,"OS X",10_13_6
2,1,1079,"""",40,eyetracking-choice,58,136069,0.0-23.0-5.0-2.1,637,1,1,"Integrierte iSight-Kamera",30,0,0,$2,Today,"""",1280,800,"""",1,"""","""","""",2,"[{""x"":0.43517010939421785,""y"":0.4482276597826181,""t"":124575.00000000003},{""x"":0.43747744642956243,""y"":0.4505130504824047,""t"":124675},{""x"":0.4351665078549106,""y"":0.4482241546237702,""t"":124767},{""x"":0.43747527482758003,""y"":0.4505109698196257,""t"":124872},{""x"":0.4351654780054778,""y"":0.44822320809218885,""t"":124969},{""x"":0.43747512872013317,""y"":0.4505108981012303,""t"":125071},{""x"":0.43516599013207324,""y"":0.4482237850676589,""t"":125170},{""x"":0.4374761065062652,""y"":0.450511931122805,""t"":125271},{""x"":0.43516727294947677,""y"":0.4482251138340021,""t"":125367.00000000003},{""x"":0.4374775636779596,""y"":0.4505134255663536,""t"":125470},{""x"":0.4351688010898765,""y"":0.44822667136298866,""t"":125561}]",null,$5,$2,"90 days",Today,"2021-01-16 13:14:28",,"Mozilla/5.0 (Macintosh; Intel Mac OS X 10_13_6) AppleWebKit/605.1.15 (KHTML, like Gecko) Version/11.1.2 Safari/605.1.15",Macintosh,Safari,11.1.2,"OS X",10_13_6
2,1,null,"<div style=""font-size:18px;""><p>Now, the left and right side of the amount and time information are <strong>switched, </strong><br> with amount on the right and time on the left side.</p> </div>",null,html-keyboard-response,59,139074,0.0-23.0-6.0,637,1,1,"Integrierte iSight-Kamera",30,0,0,$2,Today,"""","""","""","""","""","""","""","""","""","""","""","""","""","""","""","2021-01-16 13:14:28",,"Mozilla/5.0 (Macintosh; Intel Mac OS X 10_13_6) AppleWebKit/605.1.15 (KHTML, like Gecko) Version/11.1.2 Safari/605.1.15",Macintosh,Safari,11.1.2,"OS X",10_13_6
2,1,null,"""",null,html-keyboard-response,60,140576,0.0-23.0-7.0-0.0,637,1,1,"Integrierte iSight-Kamera",30,0,0,$2,Today,"""","""","""","""","""","""","""","""","""","""","""","""","""","""","""","2021-01-16 13:14:28",,"Mozilla/5.0 (Macintosh; Intel Mac OS X 10_13_6) AppleWebKit/605.1.15 (KHTML, like Gecko) Version/11.1.2 Safari/605.1.15",Macintosh,Safari,11.1.2,"OS X",10_13_6
2,1,"""","""","""",eyetracking-fix-object,61,142144,0.0-23.0-7.0-1.0,637,1,1,"Integrierte iSight-Kamera",30,0,0,$2,Today,"""",1280,800,"""",1,"""",0.5,0.5,2,"[{""x"":0.4374790836475014,""y"":0.45051496793970897,""t"":130171},{""x"":0.4351702547857519,""y"":0.44822814141806844,""t"":130323},{""x"":0.43748043080058513,""y"":0.4505163263410536,""t"":130489},{""x"":0.43517146988905153,""y"":0.44822936355054943,""t"":130639},{""x"":0.43748150025652555,""y"":0.45051739943275115,""t"":130804},{""x"":0.4351723894313815,""y"":0.4482302840792643,""t"":130954},{""x"":0.43748227267714856,""y"":0.45051817084470414,""t"":131086},{""x"":0.4351730226223981,""y"":0.44823091482869143,""t"":131224.00000000003},{""x"":0.4374827779832101,""y"":0.4505186727480578,""t"":131324},{""x"":0.43517341348745725,""y"":0.4482313017163348,""t"":131424},{""x"":0.43748306886825084,""y"":0.450518959389029,""t"":131539},{""x"":0.43517361903117485,""y"":0.4482315029873257,""t"":131640}]",1500,"""","""","""","""","2021-01-16 13:14:28",,"Mozilla/5.0 (Macintosh; Intel Mac OS X 10_13_6) AppleWebKit/605.1.15 (KHTML, like Gecko) Version/11.1.2 Safari/605.1.15",Macintosh,Safari,11.1.2,"OS X",10_13_6
2,1,3990,"""",38,eyetracking-choice,62,146138,0.0-23.0-7.0-2.0,637,1,1,"Integrierte iSight-Kamera",30,0,0,$2,Today,"""",1280,800,"""",1,"""","""","""",2,"[{""x"":0.43748320326036094,""y"":0.4505190896565977,""t"":131735},{""x"":0.43517369556753893,""y"":0.4482315756720186,""t"":131829},{""x"":0.4374832340499732,""y"":0.45051911694864594,""t"":131941},{""x"":0.435173691363242,""y"":0.4482315683702055,""t"":132038},{""x"":0.4374832041772289,""y"":0.45051908439649474,""t"":132134},{""x"":0.43517364372411615,""y"":0.4482315184665454,""t"":132237},{""x"":0.4374831453097471,""y"":0.4505190236605191,""t"":132328},{""x"":0.43517357890014596,""y"":0.448231452140522,""t"":132437},{""x"":0.43748307865744385,""y"":0.4505189558362275,""t"":132527},{""x"":0.43517351353968053,""y"":0.44823138589819594,""t"":132636},{""x"":0.43748301684115604,""y"":0.45051889338722356,""t"":132727},{""x"":0.4351734567899458,""y"":0.4482313287247585,""t"":132819},{""x"":0.43748296608110004,""y"":0.4505188423745667,""t"":132909},{""x"":0.43517341246369734,""y"":0.44823128428224057,""t"":133001},{""x"":0.437482928261555,""y"":0.45051880454401017,""t"":133091},{""x"":0.4351733809467908,""y"":0.44823125283246823,""t"":133200.00000000003},{""x"":0.43748290264683726,""y"":0.4505187790514587,""t"":133293},{""x"":0.4351733607046976,""y"":0.44823123274832816,""t"":133400},{""x"":0.43748288717347056,""y"":0.45051876375620553,""t"":133491},{""x"":0.4351733493652154,""y"":0.44823122159478407,""t"":133582},{""x"":0.4374828793353466,""y"":0.45051875610242686,""t"":133674},{""x"":0.43517334442270184,""y"":0.4482312168281339,""t"":133765},{""x"":0.43748287672647346,""y"":0.45051875365618504,""t"":133859},{""x"":0.4351733436400919,""y"":0.4482312161919407,""t"":133963},{""x"":0.4374828773231627,""y"":0.45051875438151734,""t"":134055},{""x"":0.4351733452314325,""y"":0.44823121789370396,""t"":134149},{""x"":0.43748287958575804,""y"":0.4505187567367074,""t"":134244},{""x"":0.43517334789992346,""y"":0.44823122063795773,""t"":134346},{""x"":0.43748288244815,""y"":0.4505187596594329,""t"":134439},{""x"":0.43517335079202146,""y"":0.4482312235766072,""t"":134547},{""x"":0.43748288524755596,""y"":0.45051876249337036,""t"":134641.00000000003},{""x"":0.43517335341204577,""y"":0.4482312262209204,""t"":134745},{""x"":0.43748288763130744,""y"":0.45051876489288617,""t"":134840},{""x"":0.43517335552688746,""y"":0.44823122834460816,""t"":134944},{""x"":0.43748288946380215,""y"":0.4505187667287688,""t"":135043},{""x"":0.4351733570783051,""y"":0.4482312298952498,""t"":135143},{""x"":0.4374828907462203,""y"":0.4505187680073676,""t"":135242.00000000003},{""x"":0.43517335811130164,""y"":0.4482312309223316,""t"":135342},{""x"":0.4374828915541344,""y"":0.45051876880805447,""t"":135434},{""x"":0.4351733587210231,""y"":0.4482312315241432,""t"":135541},{""x"":0.43748289199337026,""y"":0.45051876923919,""t"":135634}]",null,Today,"90 days","50 cent",$5,"2021-01-16 13:14:28",,"Mozilla/5.0 (Macintosh; Intel Mac OS X 10_13_6) AppleWebKit/605.1.15 (KHTML, like Gecko) Version/11.1.2 Safari/605.1.15",Macintosh,Safari,11.1.2,"OS X",10_13_6
2,1,null,"""",null,html-keyboard-response,63,147649,0.0-23.0-7.0-0.1,637,1,1,"Integrierte iSight-Kamera",30,0,0,$2,Today,"""","""","""","""","""","""","""","""","""","""","""","""","""","""","""","2021-01-16 13:14:28",,"Mozilla/5.0 (Macintosh; Intel Mac OS X 10_13_6) AppleWebKit/605.1.15 (KHTML, like Gecko) Version/11.1.2 Safari/605.1.15",Macintosh,Safari,11.1.2,"OS X",10_13_6
2,1,"""","""","""",eyetracking-fix-object,64,149171,0.0-23.0-7.0-1.1,637,1,1,"Integrierte iSight-Kamera",30,0,0,$2,Today,"""",1280,800,"""",1,"""",0.5,0.5,2,"[{""x"":0.43517335901698556,""y"":0.44823123181218577,""t"":137239},{""x"":0.4374828921718278,""y"":0.45051876941017477,""t"":137373.00000000003},{""x"":0.4351733591016195,""y"":0.4482312318899732,""t"":137505},{""x"":0.43748289218383996,""y"":0.45051876941607405,""t"":137621},{""x"":0.43517335905954085,""y"":0.4482312318425656,""t"":137738},{""x"":0.4374828921034951,""y"":0.4505187693311903,""t"":137854},{""x"":0.4351733589541295,""y"":0.4482312317333783,""t"":137971},{""x"":0.43748289198375573,""y"":0.45051876920838785,""t"":138070},{""x"":0.4351733588285576,""y"":0.4482312316053914,""t"":138170},{""x"":0.43748289185885464,""y"":0.4505187690816458,""t"":138270},{""x"":0.43517335870910206,""y"":0.44823123148459154,""t"":138369},{""x"":0.4374828917481538,""y"":0.4505187689700206,""t"":138469},{""x"":0.435173358609252,""y"":0.4482312313841639,""t"":138568},{""x"":0.437482891660272,""y"":0.45051876888184006,""t"":138668}]",1500,"""","""","""","""","2021-01-16 13:14:28",,"Mozilla/5.0 (Macintosh; Intel Mac OS X 10_13_6) AppleWebKit/605.1.15 (KHTML, like Gecko) Version/11.1.2 Safari/605.1.15",Macintosh,Safari,11.1.2,"OS X",10_13_6
2,1,855.0000000000291,"""",40,eyetracking-choice,65,150034,0.0-23.0-7.0-2.1,637,1,1,"Integrierte iSight-Kamera",30,0,0,$2,Today,"""",1280,800,"""",1,"""","""","""",2,"[{""x"":0.4351733585336891,""y"":0.4482312313085199,""t"":138766.00000000003},{""x"":0.4374828915967986,""y"":0.45051876881844954,""t"":138861.00000000003},{""x"":0.4351733584816567,""y"":0.4482312312566881,""t"":138960},{""x"":0.437482891555275,""y"":0.45051876877720554,""t"":139050},{""x"":0.43517335844953725,""y"":0.4482312312248954,""t"":139137},{""x"":0.4374828915313714,""y"":0.45051876875365054,""t"":139232},{""x"":0.4351733584326464,""y"":0.44823123120835573,""t"":139322},{""x"":0.4374828915203273,""y"":0.45051876874294555,""t"":139432},{""x"":0.4351733584263567,""y"":0.4482312312023826,""t"":139533}]",null,Today,"30 days",$1,$5,"2021-01-16 13:14:28",,"Mozilla/5.0 (Macintosh; Intel Mac OS X 10_13_6) AppleWebKit/605.1.15 (KHTML, like Gecko) Version/11.1.2 Safari/605.1.15",Macintosh,Safari,11.1.2,"OS X",10_13_6
2,1,null,"""",null,html-keyboard-response,66,153035,0.0-23.0-8.0,637,1,1,"Integrierte iSight-Kamera",30,0,0,$2,Today,"""","""","""","""","""","""","""","""","""","""","""","""","""","""","""","2021-01-16 13:14:28",,"Mozilla/5.0 (Macintosh; Intel Mac OS X 10_13_6) AppleWebKit/605.1.15 (KHTML, like Gecko) Version/11.1.2 Safari/605.1.15",Macintosh,Safari,11.1.2,"OS X",10_13_6
2,1,null,"""",null,html-keyboard-response,67,153145,0.0-23.0-9.0,637,1,1,"Integrierte iSight-Kamera",30,0,0,$2,Today,"""","""","""","""","""","""","""","""","""","""","""","""","""","""","""","2021-01-16 13:14:28",,"Mozilla/5.0 (Macintosh; Intel Mac OS X 10_13_6) AppleWebKit/605.1.15 (KHTML, like Gecko) Version/11.1.2 Safari/605.1.15",Macintosh,Safari,11.1.2,"OS X",10_13_6
2,1,null,"""",null,html-keyboard-response,68,153247,0.0-23.0-10.0,637,1,1,"Integrierte iSight-Kamera",30,0,0,$2,Today,"""","""","""","""","""","""","""","""","""","""","""","""","""","""","""","2021-01-16 13:14:28",,"Mozilla/5.0 (Macintosh; Intel Mac OS X 10_13_6) AppleWebKit/605.1.15 (KHTML, like Gecko) Version/11.1.2 Safari/605.1.15",Macintosh,Safari,11.1.2,"OS X",10_13_6
2,1,null,"""",null,html-keyboard-response,69,153349,0.0-24.0,637,1,1,"Integrierte iSight-Kamera",30,0,0,$2,Today,"""","""","""","""","""","""","""","""","""","""","""","""","""","""","""","2021-01-16 13:14:28",,"Mozilla/5.0 (Macintosh; Intel Mac OS X 10_13_6) AppleWebKit/605.1.15 (KHTML, like Gecko) Version/11.1.2 Safari/605.1.15",Macintosh,Safari,11.1.2,"OS X",10_13_6
2,1,2355,"<div style=""width: 45%; margin: auto; text-align: justify;""><p>For the third and final task, we will calibrate again. Before that, you can take a short break, loosen your posture and relax your head a little bit. </p> <p><strong>This task will be conducted without the chin rest:</strong> Make  yourself comfortable in front of this monitor and keep your head in a natural position. Get sure that you stay in the green rectangle in the video stream while doing that. </p><p>However, in order to make this measurement as accurate as possible, please keep your head at the same position at all time so that you <strong>only move your eyes</strong> when you look at the screen. </p></div><div><img src=""ETInstructions.PNG"" alt=""Oh, this image cannot be displayed"" style=""width: 45%;""></div><p style=""text-align: center;"">Press Space to continue </p></div>",32,html-keyboard-response,70,155706,0.0-25.0,637,1,1,"Integrierte iSight-Kamera",30,0,0,$2,Today,"""","""","""","""","""","""","""","""","""","""","""","""","""","""","""","2021-01-16 13:14:28",,"Mozilla/5.0 (Macintosh; Intel Mac OS X 10_13_6) AppleWebKit/605.1.15 (KHTML, like Gecko) Version/11.1.2 Safari/605.1.15",Macintosh,Safari,11.1.2,"OS X",10_13_6
2,1,null,"""",null,html-keyboard-response,71,155811,0.0-26.0,637,1,1,"Integrierte iSight-Kamera",30,0,0,$2,Today,"""","""","""","""","""","""","""","""","""","""","""","""","""","""","""","2021-01-16 13:14:28",,"Mozilla/5.0 (Macintosh; Intel Mac OS X 10_13_6) AppleWebKit/605.1.15 (KHTML, like Gecko) Version/11.1.2 Safari/605.1.15",Macintosh,Safari,11.1.2,"OS X",10_13_6
2,1,1061,"<div style=""width: 45%; margin: auto; text-align: justify;""><div style=""position: fixed; top: 30%; left: 27.5%; width: 45%; margin: auto; text-align: justify;""><p>Before the next task, we are going to calibrate one last time. <strong>Click 1x on each of the calibration buttons</strong> that will appear on the next page. This will take around <strong>3 minutes. </strong></p><p>For an accurate measurement, please <strong>always</strong> follow the mouse cursor with your eyes. </p><br><p style=""text-align: center;"">Press Space to continue</p></div>",32,html-keyboard-response,72,156874,0.0-27.0,637,1,1,"Integrierte iSight-Kamera",30,0,0,$2,Today,"""","""","""","""","""","""","""","""","""","""","""","""","""","""","""","2021-01-16 13:14:28",,"Mozilla/5.0 (Macintosh; Intel Mac OS X 10_13_6) AppleWebKit/605.1.15 (KHTML, like Gecko) Version/11.1.2 Safari/605.1.15",Macintosh,Safari,11.1.2,"OS X",10_13_6
2,1,null,"""",null,html-keyboard-response,73,156975,0.0-28.0-0.0,637,1,1,"Integrierte iSight-Kamera",30,0,0,$2,Today,"""","""","""","""","""","""","""","""","""","""","""","""","""","""","""","2021-01-16 13:14:28",,"Mozilla/5.0 (Macintosh; Intel Mac OS X 10_13_6) AppleWebKit/605.1.15 (KHTML, like Gecko) Version/11.1.2 Safari/605.1.15",Macintosh,Safari,11.1.2,"OS X",10_13_6
2,1,null,"""",null,html-keyboard-response,74,157077,0.0-28.0-1.0,637,1,1,"Integrierte iSight-Kamera",30,0,0,$2,Today,"""","""","""","""","""","""","""","""","""","""","""","""","""","""","""","2021-01-16 13:14:28",,"Mozilla/5.0 (Macintosh; Intel Mac OS X 10_13_6) AppleWebKit/605.1.15 (KHTML, like Gecko) Version/11.1.2 Safari/605.1.15",Macintosh,Safari,11.1.2,"OS X",10_13_6
2,1,null,"""",null,html-keyboard-response,75,158579,0.0-28.0-2.0-0.0,637,1,1,"Integrierte iSight-Kamera",30,0,0,$2,Today,"""","""","""","""","""","""","""","""","""","""","""","""","""","""","""","2021-01-16 13:14:28",,"Mozilla/5.0 (Macintosh; Intel Mac OS X 10_13_6) AppleWebKit/605.1.15 (KHTML, like Gecko) Version/11.1.2 Safari/605.1.15",Macintosh,Safari,11.1.2,"OS X",10_13_6
2,1,"""","""","""",eyetracking-calibration,76,161827,0.0-28.0-2.0-1.0,637,1,1,"Integrierte iSight-Kamera",30,0,0,$2,Today,"""",1280,800,"""",0,"""",0.2,0.2,2,"[{""x"":0.3905316391530499,""y"":0.6247876564055017,""t"":151098},{""x"":0.38944916227596577,""y"":0.6223287470815522,""t"":151217},{""x"":0.38558400647737573,""y"":0.6136525129660274,""t"":151318}]","""","""","""","""","""","2021-01-16 13:14:28",,"Mozilla/5.0 (Macintosh; Intel Mac OS X 10_13_6) AppleWebKit/605.1.15 (KHTML, like Gecko) Version/11.1.2 Safari/605.1.15",Macintosh,Safari,11.1.2,"OS X",10_13_6
2,1,null,"""",null,html-keyboard-response,77,163329,0.0-28.0-2.0-0.1,637,1,1,"Integrierte iSight-Kamera",30,0,0,$2,Today,"""","""","""","""","""","""","""","""","""","""","""","""","""","""","""","2021-01-16 13:14:28",,"Mozilla/5.0 (Macintosh; Intel Mac OS X 10_13_6) AppleWebKit/605.1.15 (KHTML, like Gecko) Version/11.1.2 Safari/605.1.15",Macintosh,Safari,11.1.2,"OS X",10_13_6
2,1,"""","""","""",eyetracking-calibration,78,164862,0.0-28.0-2.0-1.1,637,1,1,"Integrierte iSight-Kamera",30,0,0,$2,Today,"""",1280,800,"""",0,"""",0.8,0.8,2,"[{""x"":0.37682442115688397,""y"":0.5917167309515438,""t"":152925},{""x"":0.3613035144857479,""y"":0.5521244430546812,""t"":153079},{""x"":0.35374164480045456,""y"":0.5118386910399936,""t"":153231},{""x"":0.35488463877662496,""y"":0.4737264188610182,""t"":153377},{""x"":0.367518197085702,""y"":0.4497986236692131,""t"":153540},{""x"":0.39570403916970764,""y"":0.4484118483328372,""t"":153693},{""x"":0.43328026922708995,""y"":0.4643176117928479,""t"":153863},{""x"":0.47726411831433013,""y"":0.49153629097218526,""t"":154028.00000000003},{""x"":0.5303034181838056,""y"":0.5329057115705799,""t"":154182},{""x"":0.5831421486056863,""y"":0.5795902744941885,""t"":154324}]","""","""","""","""","""","2021-01-16 13:14:28",,"Mozilla/5.0 (Macintosh; Intel Mac OS X 10_13_6) AppleWebKit/605.1.15 (KHTML, like Gecko) Version/11.1.2 Safari/605.1.15",Macintosh,Safari,11.1.2,"OS X",10_13_6
2,1,null,"""",null,html-keyboard-response,79,166364,0.0-28.0-2.0-0.2,637,1,1,"Integrierte iSight-Kamera",30,0,0,$2,Today,"""","""","""","""","""","""","""","""","""","""","""","""","""","""","""","2021-01-16 13:14:28",,"Mozilla/5.0 (Macintosh; Intel Mac OS X 10_13_6) AppleWebKit/605.1.15 (KHTML, like Gecko) Version/11.1.2 Safari/605.1.15",Macintosh,Safari,11.1.2,"OS X",10_13_6
2,1,"""","""","""",eyetracking-calibration,80,167809,0.0-28.0-2.0-1.2,637,1,1,"Integrierte iSight-Kamera",30,0,0,$2,Today,"""",1280,800,"""",0,"""",0.5,0.5,2,"[{""x"":0.5872695977177328,""y"":0.5702326147449889,""t"":155960},{""x"":0.5879488617519397,""y"":0.5615815729259761,""t"":156101},{""x"":0.5822411369861283,""y"":0.5505825573923961,""t"":156257},{""x"":0.573451081337957,""y"":0.5406812203680199,""t"":156421},{""x"":0.5646390739258366,""y"":0.5364367024566415,""t"":156607},{""x"":0.5576089732819731,""y"":0.5365416756971322,""t"":156791},{""x"":0.5510263462197942,""y"":0.535883446084667,""t"":156945},{""x"":0.5452939137964012,""y"":0.5342127512751804,""t"":157113},{""x"":0.5411196009459427,""y"":0.5339321999557971,""t"":157261}]","""","""","""","""","""","2021-01-16 13:14:28",,"Mozilla/5.0 (Macintosh; Intel Mac OS X 10_13_6) AppleWebKit/605.1.15 (KHTML, like Gecko) Version/11.1.2 Safari/605.1.15",Macintosh,Safari,11.1.2,"OS X",10_13_6
2,1,null,"""",null,html-keyboard-response,81,170810,0.0-28.0-3.0,637,1,1,"Integrierte iSight-Kamera",30,0,0,$2,Today,"""","""","""","""","""","""","""","""","""","""","""","""","""","""","""","2021-01-16 13:14:28",,"Mozilla/5.0 (Macintosh; Intel Mac OS X 10_13_6) AppleWebKit/605.1.15 (KHTML, like Gecko) Version/11.1.2 Safari/605.1.15",Macintosh,Safari,11.1.2,"OS X",10_13_6
2,1,null,"""",null,html-keyboard-response,82,170916,0.0-28.0-4.0,637,1,1,"Integrierte iSight-Kamera",30,0,0,$2,Today,"""","""","""","""","""","""","""","""","""","""","""","""","""","""","""","2021-01-16 13:14:28",,"Mozilla/5.0 (Macintosh; Intel Mac OS X 10_13_6) AppleWebKit/605.1.15 (KHTML, like Gecko) Version/11.1.2 Safari/605.1.15",Macintosh,Safari,11.1.2,"OS X",10_13_6
2,1,null,"""",null,html-keyboard-response,83,171018,0.0-28.0-5.0,637,1,1,"Integrierte iSight-Kamera",30,0,0,$2,Today,"""","""","""","""","""","""","""","""","""","""","""","""","""","""","""","2021-01-16 13:14:28",,"Mozilla/5.0 (Macintosh; Intel Mac OS X 10_13_6) AppleWebKit/605.1.15 (KHTML, like Gecko) Version/11.1.2 Safari/605.1.15",Macintosh,Safari,11.1.2,"OS X",10_13_6
2,1,1797,"<div style=""text-align: center; position: fixed; top: 40%; left: 10%; width: 80%;""><p style='font-size: 30px;'><strong>Don't move! </strong><br></p><p style='font-size: 18px;'>Keep your head in the instructed position for the next task. </p><br><p>Press Space to continue </p>",32,html-keyboard-response,84,172817,0.0-29.0,637,1,1,"Integrierte iSight-Kamera",30,0,0,$2,Today,"""","""","""","""","""","""","""","""","""","""","""","""","""","""","""","2021-01-16 13:14:28",,"Mozilla/5.0 (Macintosh; Intel Mac OS X 10_13_6) AppleWebKit/605.1.15 (KHTML, like Gecko) Version/11.1.2 Safari/605.1.15",Macintosh,Safari,11.1.2,"OS X",10_13_6
2,1,608,"<div style=""text-align: center; position: fixed; top: 35%; left: 10%; width: 80%;""><p style=""font-size: 18px;"">You completed the study to </p><p style=""font-size: 40px; margin: 10px;""><strong>70% </strong></p><br><p style='font-size: 18px;'>Press Space to continue</p></div>",32,html-keyboard-response,85,173426,0.0-30.0,637,1,1,"Integrierte iSight-Kamera",30,0,0,$2,Today,"""","""","""","""","""","""","""","""","""","""","""","""","""","""","""","2021-01-16 13:14:28",,"Mozilla/5.0 (Macintosh; Intel Mac OS X 10_13_6) AppleWebKit/605.1.15 (KHTML, like Gecko) Version/11.1.2 Safari/605.1.15",Macintosh,Safari,11.1.2,"OS X",10_13_6
2,1,400.9999999999709,"<div style=""text-align: center; position: fixed; top: 35%; left: 10%; width: 80%;  font-size: 60px;""><p><strong>Task 3 </strong></p><p style='font-size: 18px;'>Press Space to continue</p></div>",32,html-keyboard-response,86,173833,0.0-31.0,637,1,1,"Integrierte iSight-Kamera",30,0,0,$2,Today,"""","""","""","""","""","""","""","""","""","""","""","""","""","""","""","2021-01-16 13:14:28",,"Mozilla/5.0 (Macintosh; Intel Mac OS X 10_13_6) AppleWebKit/605.1.15 (KHTML, like Gecko) Version/11.1.2 Safari/605.1.15",Macintosh,Safari,11.1.2,"OS X",10_13_6
2,1,439,"<div style=""text-align: center; position: fixed; top: 40%; left: 10%; width: 80%;""><p>Just as before, please <u>look</u> at the dots that will appear on the next page. First, look at the <strong>fixation cross</strong> in the center and then <strong>look for 5 seconds at each dot.</strong></p><p>Press Space to continue</p></div>",32,html-keyboard-response,87,174273,0.0-32.0,637,1,1,"Integrierte iSight-Kamera",30,0,0,$2,Today,"""","""","""","""","""","""","""","""","""","""","""","""","""","""","""","2021-01-16 13:14:28",,"Mozilla/5.0 (Macintosh; Intel Mac OS X 10_13_6) AppleWebKit/605.1.15 (KHTML, like Gecko) Version/11.1.2 Safari/605.1.15",Macintosh,Safari,11.1.2,"OS X",10_13_6
2,1,null,"""",null,html-keyboard-response,88,174374,0.0-33.0-0.0,637,1,1,"Integrierte iSight-Kamera",30,0,0,$2,Today,"""","""","""","""","""","""","""","""","""","""","""","""","""","""","""","2021-01-16 13:14:28",,"Mozilla/5.0 (Macintosh; Intel Mac OS X 10_13_6) AppleWebKit/605.1.15 (KHTML, like Gecko) Version/11.1.2 Safari/605.1.15",Macintosh,Safari,11.1.2,"OS X",10_13_6
2,1,null,"""",null,html-keyboard-response,89,174477,0.0-33.0-1.0,637,1,1,"Integrierte iSight-Kamera",30,0,0,$2,Today,"""","""","""","""","""","""","""","""","""","""","""","""","""","""","""","2021-01-16 13:14:28",,"Mozilla/5.0 (Macintosh; Intel Mac OS X 10_13_6) AppleWebKit/605.1.15 (KHTML, like Gecko) Version/11.1.2 Safari/605.1.15",Macintosh,Safari,11.1.2,"OS X",10_13_6
2,1,null,"""",null,html-keyboard-response,90,174579,0.0-33.0-2.0,637,1,1,"Integrierte iSight-Kamera",30,0,0,$2,Today,"""","""","""","""","""","""","""","""","""","""","""","""","""","""","""","2021-01-16 13:14:28",,"Mozilla/5.0 (Macintosh; Intel Mac OS X 10_13_6) AppleWebKit/605.1.15 (KHTML, like Gecko) Version/11.1.2 Safari/605.1.15",Macintosh,Safari,11.1.2,"OS X",10_13_6
2,1,null,"""",null,html-keyboard-response,91,176081,0.0-33.0-3.0-0.0,637,1,1,"Integrierte iSight-Kamera",30,0,0,$2,Today,"""","""","""","""","""","""","""","""","""","""","""","""","""","""","""","2021-01-16 13:14:28",,"Mozilla/5.0 (Macintosh; Intel Mac OS X 10_13_6) AppleWebKit/605.1.15 (KHTML, like Gecko) Version/11.1.2 Safari/605.1.15",Macintosh,Safari,11.1.2,"OS X",10_13_6
2,1,"""","""","""",eyetracking-fix-object,92,177650,0.0-33.0-3.0-1.0,637,1,1,"Integrierte iSight-Kamera",30,0,0,$2,Today,"""",1280,800,"""",0,"""",0.5,0.5,3,"[{""x"":0.5303191800418601,""y"":0.5218283071832643,""t"":165678},{""x"":0.5194804672251127,""y"":0.5100301466714113,""t"":165841},{""x"":0.5100531069178299,""y"":0.500312582749275,""t"":166006},{""x"":0.5012001560761928,""y"":0.4915435257261973,""t"":166177},{""x"":0.49501254197045597,""y"":0.48563710329077425,""t"":166344},{""x"":0.49017541692951516,""y"":0.48125001386839167,""t"":166643},{""x"":0.4865284545116886,""y"":0.47815961166789483,""t"":166941},{""x"":0.4839053352930714,""y"":0.4761493991255247,""t"":167109}]",1500,"""","""","""","""","2021-01-16 13:14:28",,"Mozilla/5.0 (Macintosh; Intel Mac OS X 10_13_6) AppleWebKit/605.1.15 (KHTML, like Gecko) Version/11.1.2 Safari/605.1.15",Macintosh,Safari,11.1.2,"OS X",10_13_6
2,1,"""","""","""",eyetracking-fix-object,93,179804,0.0-33.0-3.0-2.0,637,1,1,"Integrierte iSight-Kamera",30,0,0,$2,Today,"""",1280,800,"""",0,"""",0.2,0.2,3,"[{""x"":0.48214226881488254,""y"":0.475016378077279,""t"":167243},{""x"":0.48108405564079976,""y"":0.47457578736721634,""t"":167384},{""x"":0.4805881183735954,""y"":0.47466376434295426,""t"":167500},{""x"":0.48052690776495605,""y"":0.4751384115321059,""t"":167622},{""x"":0.4807890437711652,""y"":0.47587967751942123,""t"":167754.00000000003},{""x"":0.48127949845934603,""y"":0.47678838895418685,""t"":167888},{""x"":0.48191907672212986,""y"":0.47778470596657774,""t"":167976},{""x"":0.48264340521934435,""y"":0.4788062180184706,""t"":168073},{""x"":0.48340160045411773,""y"":0.4798058508198708,""t"":168164},{""x"":0.4841547528821913,""y"":0.48074971606845923,""t"":168270},{""x"":0.48487433466742524,""y"":0.48161500310853966,""t"":168360},{""x"":0.485540613473181,""y"":0.48238798415829737,""t"":168452},{""x"":0.48614113305855045,""y"":0.48306218183164207,""t"":168542},{""x"":0.48666930312343937,""y"":0.48363672880137065,""t"":168652},{""x"":0.4871231255856829,""y"":0.48411493423243646,""t"":168746},{""x"":0.48750407205774715,""y"":0.4845030597020106,""t"":168851},{""x"":0.4878161174797374,""y"":0.48480929835066583,""t"":168941},{""x"":0.4880649273882529,""y"":0.4850429445928988,""t"":169034.00000000003},{""x"":0.48825719086206876,""y"":0.48521373746379415,""t"":169127},{""x"":0.4884000874806601,""y"":0.4853313582078807,""t"":169215},{""x"":0.4885008743601543,""y"":0.48540506166448627,""t"":169307}]",2000,"""","""","""","""","2021-01-16 13:14:28",,"Mozilla/5.0 (Macintosh; Intel Mac OS X 10_13_6) AppleWebKit/605.1.15 (KHTML, like Gecko) Version/11.1.2 Safari/605.1.15",Macintosh,Safari,11.1.2,"OS X",10_13_6
2,1,null,"""",null,html-keyboard-response,94,181310,0.0-33.0-3.0-0.1,637,1,1,"Integrierte iSight-Kamera",30,0,0,$2,Today,"""","""","""","""","""","""","""","""","""","""","""","""","""","""","""","2021-01-16 13:14:28",,"Mozilla/5.0 (Macintosh; Intel Mac OS X 10_13_6) AppleWebKit/605.1.15 (KHTML, like Gecko) Version/11.1.2 Safari/605.1.15",Macintosh,Safari,11.1.2,"OS X",10_13_6
2,1,"""","""","""",eyetracking-fix-object,95,182820,0.0-33.0-3.0-1.1,637,1,1,"Integrierte iSight-Kamera",30,0,0,$2,Today,"""",1280,800,"""",0,"""",0.5,0.5,3,"[{""x"":0.48856657821066,""y"":0.485443421043137,""t"":170902},{""x"":0.4886037771322691,""y"":0.485454166524934,""t"":171025},{""x"":0.48861845730831793,""y"":0.4854440995262618,""t"":171166},{""x"":0.48861593067023473,""y"":0.48541906621662867,""t"":171313},{""x"":0.4886008008370708,""y"":0.48538397582938797,""t"":171445},{""x"":0.4885769660434039,""y"":0.4853428513146528,""t"":171595},{""x"":0.48854764925791133,""y"":0.4852989018613117,""t"":171728},{""x"":0.4885154471820304,""y"":0.4852546086898657,""t"":171877},{""x"":0.488482391245205,""y"":0.48521181724248885,""t"":172028.00000000003},{""x"":0.48845001503947366,""y"":0.48517183044227025,""t"":172160},{""x"":0.4884194238354576,""y"":0.4851354990457274,""t"":172292}]",1500,"""","""","""","""","2021-01-16 13:14:28",,"Mozilla/5.0 (Macintosh; Intel Mac OS X 10_13_6) AppleWebKit/605.1.15 (KHTML, like Gecko) Version/11.1.2 Safari/605.1.15",Macintosh,Safari,11.1.2,"OS X",10_13_6
2,1,"""","""","""",eyetracking-fix-object,96,184829,0.0-33.0-3.0-2.1,637,1,1,"Integrierte iSight-Kamera",30,0,0,$2,Today,"""",1280,800,"""",0,"""",0.5,0.5,3,"[{""x"":0.4883913628799001,""y"":0.4851033062684623,""t"":172419},{""x"":0.4883662820868409,""y"":0.485075444828882,""t"":172530},{""x"":0.4883443955024024,""y"":0.4850518853409008,""t"":172628},{""x"":0.48832573455429473,""y"":0.4850324356092045,""t"":172724.00000000003},{""x"":0.4883101946022914,""y"":0.48501679085804783,""t"":172812},{""x"":0.4882975746980368,""y"":0.4850045752757849,""t"":172907},{""x"":0.4882876107556708,""y"":0.48499537550148547,""t"":173002},{""x"":0.48828000254316856,""y"":0.4849887668354186,""t"":173106},{""x"":0.488274435041924,""y"":0.48498433303895316,""t"":173194},{""x"":0.48827059480200397,""y"":0.4849816806169581,""t"":173288},{""x"":0.4882681819546276,""y"":0.4849804484607212,""t"":173377},{""x"":0.48826691854239596,""y"":0.48498031368348005,""t"":173474.00000000003},{""x"":0.48826655380086015,""y"":0.4849809944137804,""t"":173566},{""x"":0.4882668669800183,""y"":0.48498225023216746,""t"":173671},{""x"":0.48826766823778145,""y"":0.48498388085070665,""t"":173759},{""x"":0.48826879807461454,""y"":0.4849857235475649,""t"":173853},{""x"":0.48827012571357287,""y"":0.4849876497841641,""t"":173945},{""x"":0.4882715467659563,""y"":0.48498956135292076,""t"":174053},{""x"":0.4882729804620709,""y"":0.4849913863311084,""t"":174142},{""x"":0.4882743666706764,""y"":0.48499307505194666,""t"":174237},{""x"":0.4882756628805532,""y"":0.48499459624808766,""t"":174330}]",2000,"""","""","""","""","2021-01-16 13:14:28",,"Mozilla/5.0 (Macintosh; Intel Mac OS X 10_13_6) AppleWebKit/605.1.15 (KHTML, like Gecko) Version/11.1.2 Safari/605.1.15",Macintosh,Safari,11.1.2,"OS X",10_13_6
2,1,null,"""",null,html-keyboard-response,97,186331,0.0-33.0-3.0-0.2,637,1,1,"Integrierte iSight-Kamera",30,0,0,$2,Today,"""","""","""","""","""","""","""","""","""","""","""","""","""","""","""","2021-01-16 13:14:28",,"Mozilla/5.0 (Macintosh; Intel Mac OS X 10_13_6) AppleWebKit/605.1.15 (KHTML, like Gecko) Version/11.1.2 Safari/605.1.15",Macintosh,Safari,11.1.2,"OS X",10_13_6
2,1,"""","""","""",eyetracking-fix-object,98,187907,0.0-33.0-3.0-1.2,637,1,1,"Integrierte iSight-Kamera",30,0,0,$2,Today,"""",1280,800,"""",0,"""",0.5,0.5,3,"[{""x"":0.48827684127373494,""y"":0.4849959334752243,""t"":175931},{""x"":0.48827788598241206,""y"":0.48499708188424995,""t"":176062},{""x"":0.4882787905901522,""y"":0.48499804537867364,""t"":176201},{""x"":0.48827955591252914,""y"":0.4849988341691197,""t"":176349.00000000003},{""x"":0.4882801880719915,""y"":0.4849994627179094,""t"":176500},{""x"":0.48828069686626074,""y"":0.48499994805308977,""t"":176680},{""x"":0.4882810944180992,""y"":0.48500030842203906,""t"":176847},{""x"":0.4882813940863212,""y"":0.48500056224913185,""t"":176982},{""x"":0.4882816096128321,""y"":0.48500072735919725,""t"":177112},{""x"":0.48828175447772687,""y"":0.48500082042797904,""t"":177244},{""x"":0.4882818414335527,""y"":0.48500085662196857,""t"":177378}]",1500,"""","""","""","""","2021-01-16 13:14:28",,"Mozilla/5.0 (Macintosh; Intel Mac OS X 10_13_6) AppleWebKit/605.1.15 (KHTML, like Gecko) Version/11.1.2 Safari/605.1.15",Macintosh,Safari,11.1.2,"OS X",10_13_6
2,1,"""","""","""",eyetracking-fix-object,99,190095,0.0-33.0-3.0-2.2,637,1,1,"Integrierte iSight-Kamera",30,0,0,$2,Today,"""",1280,800,"""",0,"""",0.8,0.8,3,"[{""x"":0.4882818821903026,""y"":0.4850008493923179,""t"":177500},{""x"":0.4882818872241744,""y"":0.4850008103906771,""t"":177599.00000000003},{""x"":0.4882818656852816,""y"":0.4850007494783784,""t"":177696},{""x"":0.48828182538207604,""y"":0.4850006748041732,""t"":177793},{""x"":0.48828177282302193,""y"":0.4850005929294982,""t"":177885.00000000003},{""x"":0.4882817132988855,""y"":0.4850005089838666,""t"":177976},{""x"":0.488281650991748,""y"":0.485000426836341,""t"":178069},{""x"":0.48828158909942926,""y"":0.4850003492720832,""t"":178159.00000000003},{""x"":0.488281529966354,""y"":0.4850002781656546,""t"":178247},{""x"":0.48828147521399157,""y"":0.48500021464504967,""t"":178341},{""x"":0.48828142586580753,""y"":0.4850001592423858,""t"":178436},{""x"":0.48828138246321473,""y"":0.4850001120287709,""t"":178541},{""x"":0.48828134517028043,""y"":0.48500007273214335,""t"":178633},{""x"":0.48828131386598583,""y"":0.4850000408378714,""t"":178740},{""x"":0.48828128822363653,""y"":0.48500001567263645,""t"":178835},{""x"":0.4882812677776413,""y"":0.4849999964726517,""t"":178939},{""x"":0.4882812519783181,""y"":0.4849999824376111,""t"":179027},{""x"":0.4882812402356886,""y"":0.4849999727719666,""t"":179122},{""x"":0.48828123195340734,""y"":0.4849999667152125,""t"":179212.00000000003},{""x"":0.48828122655406336,""y"":0.4849999635628556,""t"":179321},{""x"":0.4882812234971093,""y"":0.48499996267967643,""t"":179413},{""x"":0.48828122229063675,""y"":0.4849999635067745,""t"":179504.00000000003},{""x"":0.4882812224981422,""y"":0.4849999655637444,""t"":179594}]",2000,"""","""","""","""","2021-01-16 13:14:28",,"Mozilla/5.0 (Macintosh; Intel Mac OS X 10_13_6) AppleWebKit/605.1.15 (KHTML, like Gecko) Version/11.1.2 Safari/605.1.15",Macintosh,Safari,11.1.2,"OS X",10_13_6
2,1,null,"""",null,html-keyboard-response,100,193100,0.0-33.0-4.0,637,1,1,"Integrierte iSight-Kamera",30,0,0,$2,Today,"""","""","""","""","""","""","""","""","""","""","""","""","""","""","""","2021-01-16 13:14:28",,"Mozilla/5.0 (Macintosh; Intel Mac OS X 10_13_6) AppleWebKit/605.1.15 (KHTML, like Gecko) Version/11.1.2 Safari/605.1.15",Macintosh,Safari,11.1.2,"OS X",10_13_6
2,1,null,"""",null,html-keyboard-response,101,193206,0.0-33.0-5.0,637,1,1,"Integrierte iSight-Kamera",30,0,0,$2,Today,"""","""","""","""","""","""","""","""","""","""","""","""","""","""","""","2021-01-16 13:14:28",,"Mozilla/5.0 (Macintosh; Intel Mac OS X 10_13_6) AppleWebKit/605.1.15 (KHTML, like Gecko) Version/11.1.2 Safari/605.1.15",Macintosh,Safari,11.1.2,"OS X",10_13_6
2,1,null,"""",null,html-keyboard-response,102,193312,0.0-33.0-6.0,637,1,1,"Integrierte iSight-Kamera",30,0,0,$2,Today,"""","""","""","""","""","""","""","""","""","""","""","""","""","""","""","2021-01-16 13:14:28",,"Mozilla/5.0 (Macintosh; Intel Mac OS X 10_13_6) AppleWebKit/605.1.15 (KHTML, like Gecko) Version/11.1.2 Safari/605.1.15",Macintosh,Safari,11.1.2,"OS X",10_13_6
2,1,null,"""",null,html-keyboard-response,103,193414,0.0-33.0-7.0,637,1,1,"Integrierte iSight-Kamera",30,0,0,$2,Today,"""","""","""","""","""","""","""","""","""","""","""","""","""","""","""","2021-01-16 13:14:28",,"Mozilla/5.0 (Macintosh; Intel Mac OS X 10_13_6) AppleWebKit/605.1.15 (KHTML, like Gecko) Version/11.1.2 Safari/605.1.15",Macintosh,Safari,11.1.2,"OS X",10_13_6
2,1,null,"""",null,html-keyboard-response,104,193516,0.0-34.0,637,1,1,"Integrierte iSight-Kamera",30,0,0,$2,Today,"""","""","""","""","""","""","""","""","""","""","""","""","""","""","""","2021-01-16 13:14:28",,"Mozilla/5.0 (Macintosh; Intel Mac OS X 10_13_6) AppleWebKit/605.1.15 (KHTML, like Gecko) Version/11.1.2 Safari/605.1.15",Macintosh,Safari,11.1.2,"OS X",10_13_6
2,1,"""","""","""",fullscreen,105,194517,0.0-35.0,637,1,1,"Integrierte iSight-Kamera",30,0,0,$2,Today,"""","""","""","""","""",true,"""","""","""","""","""","""","""","""","""","2021-01-16 13:14:28",,"Mozilla/5.0 (Macintosh; Intel Mac OS X 10_13_6) AppleWebKit/605.1.15 (KHTML, like Gecko) Version/11.1.2 Safari/605.1.15",Macintosh,Safari,11.1.2,"OS X",10_13_6
2,1,7873,"<div style=""text-align: center; position: fixed; top: 35%; left: 10%; width: 80%;""><p style=""font-size: 18px;"">You completed the study to </p><p style=""font-size: 40px; margin: 10px;""><strong>90% </strong></p><br><p style='font-size: 18px;'>Press Space to continue</p></div>",32,html-keyboard-response,106,202391,0.0-36.0,637,1,1,"Integrierte iSight-Kamera",30,0,0,$2,Today,"""","""","""","""","""","""","""","""","""","""","""","""","""","""","""","2021-01-16 13:14:28",,"Mozilla/5.0 (Macintosh; Intel Mac OS X 10_13_6) AppleWebKit/605.1.15 (KHTML, like Gecko) Version/11.1.2 Safari/605.1.15",Macintosh,Safari,11.1.2,"OS X",10_13_6
2,1,18238,"""","""",survey-html-form,107,220638,0.0-37.0,637,1,1,"Integrierte iSight-Kamera",30,0,0,$2,Today,"""","""","""","{""age"":""1995"",""gender"":""male"",""ethnic"":""caucasian"",""sight"":""glasses"",""glasses"":""shortSight"",""degree"":""Grad""}","""","""","""","""","""","""","""","""","""","""","""","2021-01-16 13:14:28",,"Mozilla/5.0 (Macintosh; Intel Mac OS X 10_13_6) AppleWebKit/605.1.15 (KHTML, like Gecko) Version/11.1.2 Safari/605.1.15",Macintosh,Safari,11.1.2,"OS X",10_13_6
2,1,1416,"""","""",survey-html-form,108,222055,0.0-38.0,637,1,1,"Integrierte iSight-Kamera",30,0,0,$2,Today,"""","""","""","{""eyeshadow"":""no"",""masquara"":""no"",""eyeliner"":""no"",""browliner"":""no""}","""","""","""","""","""","""","""","""","""","""","""","2021-01-16 13:14:28",,"Mozilla/5.0 (Macintosh; Intel Mac OS X 10_13_6) AppleWebKit/605.1.15 (KHTML, like Gecko) Version/11.1.2 Safari/605.1.15",Macintosh,Safari,11.1.2,"OS X",10_13_6
2,1,4485,"""","""",survey-html-form,109,226546,0.0-39.0,637,1,1,"Integrierte iSight-Kamera",30,0,0,$2,Today,"""","""","""","{""vertPosition"":""b""}","""","""","""","""","""","""","""","""","""","""","""","2021-01-16 13:14:28",,"Mozilla/5.0 (Macintosh; Intel Mac OS X 10_13_6) AppleWebKit/605.1.15 (KHTML, like Gecko) Version/11.1.2 Safari/605.1.15",Macintosh,Safari,11.1.2,"OS X",10_13_6
2,1,14184.99999999997,"""","""",survey-html-form,110,240731,0.0-40.0,637,1,1,"Integrierte iSight-Kamera",30,0,0,$2,Today,"""","""","""","{""triedChin"":""no"",""keptHead"":""no"",""optionalNote"":""}","""","""","""","""","""","""","""","""","""","""","""","2021-01-16 13:14:28",,"Mozilla/5.0 (Macintosh; Intel Mac OS X 10_13_6) AppleWebKit/605.1.15 (KHTML, like Gecko) Version/11.1.2 Safari/605.1.15",Macintosh,Safari,11.1.2,"OS X",10_13_6
2,1,25005,"<div style=position: fixed; top: 20%; left: 10%; width: 80%;""><p><strong>Bonus Payment</strong></p><p>For your Bonus Payment, we randomly selected one of your chosen options from the choice Task: </p><p style=""text-align: left; font-weight: bold;"">Reward: $2</p><p style=""text-align: left; font-weight: bold;"">Delay: Today</p><p>We will send you the reward via Prolific Bonus Payment with the respective delay. If you have any questions, do not hesitate to contact: tim.schneegans@fu-berlin.de.</p><p>Press ""Space"" to get your Prolific Code.</p></div>",32,html-keyboard-response,111,265742,0.0-41.0,637,1,1,"Integrierte iSight-Kamera",30,0,0,$2,Today,"""","""","""","""","""","""","""","""","""","""","""","""","""","""","""","2021-01-16 13:14:28",,"Mozilla/5.0 (Macintosh; Intel Mac OS X 10_13_6) AppleWebKit/605.1.15 (KHTML, like Gecko) Version/11.1.2 Safari/605.1.15",Macintosh,Safari,11.1.2,"OS X",10_13_6
2,1,3724,"<div style=""position: fixed; display: inline-block; top: 10%; right: 10%; text-align: right;""><img src=""fu_logo.PNG"" alt=""[FU Berlin Logo]"" style=""width: 15%;""></div><div style='text-align:left; font-size: small; line-height: 1.1;'><p><strong>Study Title: </strong>Factors that influence the accuracy of webcam-based eye-tracking </p><p><strong>Project manager (also responsible for data protection in the project):</strong> Tim Schneegans, tim.schneegans@fu-berlin.de </p><p><strong>Chief data protection officer of the Freie Universität Berlin: </strong>Dr. Karsten Kinast, LL.M. datenschutz@fu-berlin.de<br>More information: <a href='https://www.fuberlin.de/en/einrichtungen/interessenvertretungen/datenschutz/dahlem/index.html'>https://www.fuberlin.de/en/einrichtungen/interessenvertretungen/datenschutz/dahlem/index.html</a> </p><p></p><strong>Berlin officer for data protection and freedom of information:</strong> mailbox@datenschutz-berlin.de<br>More information: <a href='https://www.datenschutz-berlin.de/ueber-uns/kontakt/'>https://www.datenschutz-berlin.de/ueber-uns/kontakt/</a> </p></div><p style=""margin-bottom: 6px;""><strong>Your Prolific Code: </strong></p><div style=""border: 5px outset #51B896;background-color: #e2fbff; text-align: center;""><strong>82F1A4A9 </strong></div><p style=""margin-bottom: 6px;"">The following text is optional. Your participation will now be considered as completed. </p><div style=""border: 3px outset rgba(163,163,163,0.49); background-color: #f1f1f1; padding: 10px; text-align: center; text-align:justify;""><p style=""margin-top: 0; margin-bottom: 0;""><i>What was this study about in detail? </i><br>This study wants to understand how accurate online eye-tracking devices are and what factors influence their accuracy. Researchers have developed online eye-tracking tools that work with the user’s browser and webcam. Compared to traditional in-lab eye-tracking machines, they could enable researchers from various fields (e.g. decision making, attention or learning behavior) to carry their experiments beyond the campus and work with and therefore apply their findings to people from more diverse demographic backgrounds. In addition, online eye-trackers could save a lot of time, costs, and therefore tax money. In this study, we used the tool Webgazer.js from Prof. Papoutsaki and colleagues (www.webgazer.cs.brown.edu). In the fixation tasks, we were testing the accuracy of the gaze predictions and if an improvised chin-rest could improve the accuracy. In the decision tasks, we tested whether we can replicate established findings from decision making research.For any further questions, please do not hesitate to contact tim.schneegans@fu-berlin.de </p></div>",32,html-keyboard-response,112,269470,0.0-42.0,637,1,1,"Integrierte iSight-Kamera",30,0,0,$2,Today,"""","""","""","""","""","""","""","""","""","""","""","""","""","""","""","2021-01-16 13:14:28",,"Mozilla/5.0 (Macintosh; Intel Mac OS X 10_13_6) AppleWebKit/605.1.15 (KHTML, like Gecko) Version/11.1.2 Safari/605.1.15",Macintosh,Safari,11.1.2,"OS X",10_13_6
