run_id,condition,rt,stimulus,button_pressed,window_width,window_height,trial_type,trial_index,time_elapsed,internal_node_id,subject,chinFirst,choiceTask_amountLeftFirst,webcam_label,webcam_Id,webcam_fps,webcam_aspectRatio,webcam_height,webcam_width,responses,key_press,success,x_pos,y_pos,chin,task_nr,eyeData,trial_duration,option_topLeft,option_bottomLeft,option_topRight,option_bottomRight,recorded_at,ip,user_agent,device,browser,browser_version,platform,platform_version
14,1,9871.989999897778,"<div style=""position: fixed; display: inline-block; top: 20%; right: 20%; text-align: right;""><img src=""fu_logo.PNG"" alt=""[FU Berlin Logo]"" style=""width: 25%;""></div><div><br><br><p><strong>Welcome, dear participant! </strong></p><p>Thank you for your interest in and your support for our research.<br> This study is run by researchers at Freie Universität Berlin. </p></div>",0,1280,648,html-button-response,0,9876,0.0-0.0,698,0,1,"c922 Pro Stream Webcam (046d:085c)",9ff821d7ff24bc1d762057feede70948adeac76826a7b0a159eb2ee6d0704fc8,60,0.0006510416666666666,1536,2304,"""","""","""","""","""","""","""","""","""","""","""","""","""","2021-01-13 07:33:48",,"Mozilla/5.0 (Windows NT 10.0; Win64; x64) AppleWebKit/537.36 (KHTML, like Gecko) Chrome/87.0.4280.141 Safari/537.36",WebKit,Chrome,87.0.4280.141,Windows,10.0
14,1,2694.8899999260902,"""","""","""","""",survey-html-form,1,12576,0.0-1.0,698,0,1,"c922 Pro Stream Webcam (046d:085c)",9ff821d7ff24bc1d762057feede70948adeac76826a7b0a159eb2ee6d0704fc8,60,0.0006510416666666666,1536,2304,"{""prolificID"":""Tim""}","""","""","""","""","""","""","""","""","""","""","""","""","2021-01-13 07:33:48",,"Mozilla/5.0 (Windows NT 10.0; Win64; x64) AppleWebKit/537.36 (KHTML, like Gecko) Chrome/87.0.4280.141 Safari/537.36",WebKit,Chrome,87.0.4280.141,Windows,10.0
14,1,1521.7399999964982,"<p>Please, use only <strong>one monitor</strong> for this study.<br>If necessary, switch off the other monitors.</p>",0,"""","""",html-button-response,2,14100,0.0-2.0,698,0,1,"c922 Pro Stream Webcam (046d:085c)",9ff821d7ff24bc1d762057feede70948adeac76826a7b0a159eb2ee6d0704fc8,60,0.0006510416666666666,1536,2304,"""","""","""","""","""","""","""","""","""","""","""","""","""","2021-01-13 07:33:48",,"Mozilla/5.0 (Windows NT 10.0; Win64; x64) AppleWebKit/537.36 (KHTML, like Gecko) Chrome/87.0.4280.141 Safari/537.36",WebKit,Chrome,87.0.4280.141,Windows,10.0
14,1,759.6950000151992,"<p><strong>Please turn your mobile phone into Airplane Mode and close all CPU- or data-intensive programs and websites!</strong><br> (e.g. running Youtube Videos or Torrents)</p>",0,"""","""",html-button-response,3,14862,0.0-3.0,698,0,1,"c922 Pro Stream Webcam (046d:085c)",9ff821d7ff24bc1d762057feede70948adeac76826a7b0a159eb2ee6d0704fc8,60,0.0006510416666666666,1536,2304,"""","""","""","""","""","""","""","""","""","""","""","""","""","2021-01-13 07:33:48",,"Mozilla/5.0 (Windows NT 10.0; Win64; x64) AppleWebKit/537.36 (KHTML, like Gecko) Chrome/87.0.4280.141 Safari/537.36",WebKit,Chrome,87.0.4280.141,Windows,10.0
14,1,null,"""","""","""","""",html-keyboard-response,4,14988,0.0-4.0,698,0,1,"c922 Pro Stream Webcam (046d:085c)",9ff821d7ff24bc1d762057feede70948adeac76826a7b0a159eb2ee6d0704fc8,60,0.0006510416666666666,1536,2304,"""",null,"""","""","""","""","""","""","""","""","""","""","""","2021-01-13 07:33:48",,"Mozilla/5.0 (Windows NT 10.0; Win64; x64) AppleWebKit/537.36 (KHTML, like Gecko) Chrome/87.0.4280.141 Safari/537.36",WebKit,Chrome,87.0.4280.141,Windows,10.0
14,1,null,"""","""","""","""",html-keyboard-response,5,15097,0.0-5.0,698,0,1,"c922 Pro Stream Webcam (046d:085c)",9ff821d7ff24bc1d762057feede70948adeac76826a7b0a159eb2ee6d0704fc8,60,0.0006510416666666666,1536,2304,"""",null,"""","""","""","""","""","""","""","""","""","""","""","2021-01-13 07:33:48",,"Mozilla/5.0 (Windows NT 10.0; Win64; x64) AppleWebKit/537.36 (KHTML, like Gecko) Chrome/87.0.4280.141 Safari/537.36",WebKit,Chrome,87.0.4280.141,Windows,10.0
14,1,5406.3399999868125,"<div style=""width: 45%; text-align: left; margin: auto;""><p><strong>For a preliminary adjustment, please consider the following instructions: </strong></p><ol><li>Sit at a table and make sure that you could later rest your elbows on it. </li><li>Sit towards a window or lamp so that there are no shadows on your face. You might additionally turn on a desk lamp for that. </li></ol></div><img src=""lightInstruct.PNG"" alt=""[Eye-Tracking-Instructions]"" style=""width: 70%;"">",0,"""","""",html-button-response,6,20505,0.0-6.0,698,0,1,"c922 Pro Stream Webcam (046d:085c)",9ff821d7ff24bc1d762057feede70948adeac76826a7b0a159eb2ee6d0704fc8,60,0.0006510416666666666,1536,2304,"""","""","""","""","""","""","""","""","""","""","""","""","""","2021-01-13 07:33:48",,"Mozilla/5.0 (Windows NT 10.0; Win64; x64) AppleWebKit/537.36 (KHTML, like Gecko) Chrome/87.0.4280.141 Safari/537.36",WebKit,Chrome,87.0.4280.141,Windows,10.0
14,1,1582.4049999937415,"<div style=""width: 45%; text-align: left; margin: auto;""><ol start='3'><li>Check the video and stay in the highlighted rectangle so that it becomes green. </li><li>Try as much as possible to follow the instructions on these pictures and avoid moving your head. If you move too much, the calibration can fail and you might not be able to finish the study. </li><li><strong>If necessary, adjust your laptop, monitor, webcam, or chair. </strong></li></ol></div><img src=""ETInstructions.PNG"" alt=""[Eye-Tracking-Instructions]"" style=""width: 70%;"">",0,"""","""",html-button-response,7,22093,0.0-7.0,698,0,1,"c922 Pro Stream Webcam (046d:085c)",9ff821d7ff24bc1d762057feede70948adeac76826a7b0a159eb2ee6d0704fc8,60,0.0006510416666666666,1536,2304,"""","""","""","""","""","""","""","""","""","""","""","""","""","2021-01-13 07:33:48",,"Mozilla/5.0 (Windows NT 10.0; Win64; x64) AppleWebKit/537.36 (KHTML, like Gecko) Chrome/87.0.4280.141 Safari/537.36",WebKit,Chrome,87.0.4280.141,Windows,10.0
14,1,"""","""","""",1280,648,fullscreen,8,24324,0.0-8.0,698,0,1,"c922 Pro Stream Webcam (046d:085c)",9ff821d7ff24bc1d762057feede70948adeac76826a7b0a159eb2ee6d0704fc8,60,0.0006510416666666666,1536,2304,"""","""",true,"""","""","""","""","""","""","""","""","""","""","2021-01-13 07:33:48",,"Mozilla/5.0 (Windows NT 10.0; Win64; x64) AppleWebKit/537.36 (KHTML, like Gecko) Chrome/87.0.4280.141 Safari/537.36",WebKit,Chrome,87.0.4280.141,Windows,10.0
14,1,1610.1999999955297,"<div style=""width: 45%; margin: auto; text-align: justify;""><p>For the next task, please do <strong>not</strong> rest your head on your arm but keep your head in a natural position. Get sure that you stay in the rectangle in the video stream while doing that. </p><p>However, in order to make this measurement as accurate as possible, please keep your head at the same position at all time so that you <strong>only move your eyes</strong> when you look at the screen. </p></div><p style=""text-align: center;"">Press Space to continue </p>","""","""","""",html-keyboard-response,9,25940,0.0-9.0,698,0,1,"c922 Pro Stream Webcam (046d:085c)",9ff821d7ff24bc1d762057feede70948adeac76826a7b0a159eb2ee6d0704fc8,60,0.0006510416666666666,1536,2304,"""",32,"""","""","""","""","""","""","""","""","""","""","""","2021-01-13 07:33:48",,"Mozilla/5.0 (Windows NT 10.0; Win64; x64) AppleWebKit/537.36 (KHTML, like Gecko) Chrome/87.0.4280.141 Safari/537.36",WebKit,Chrome,87.0.4280.141,Windows,10.0
14,1,1186.6699999663979,"<p><strong>Can you stay in that pose for a while?</strong></p><p>If not, then please adjust now in order to be comfortable.</p><br><p>Press Space to continue</p>","""","""","""",html-keyboard-response,10,27129,0.0-10.0,698,0,1,"c922 Pro Stream Webcam (046d:085c)",9ff821d7ff24bc1d762057feede70948adeac76826a7b0a159eb2ee6d0704fc8,60,0.0006510416666666666,1536,2304,"""",32,"""","""","""","""","""","""","""","""","""","""","""","2021-01-13 07:33:48",,"Mozilla/5.0 (Windows NT 10.0; Win64; x64) AppleWebKit/537.36 (KHTML, like Gecko) Chrome/87.0.4280.141 Safari/537.36",WebKit,Chrome,87.0.4280.141,Windows,10.0
14,1,531.2149999663234,"<div style=""position: fixed; top: 30%; left: 27.5%; width: 45%; margin: auto; text-align: justify;""><p>For calibration purposes, there will be buttons (39 in total) appearing one after another. <strong>Click 14x on each button</strong> until it turns green. Then the next button will appear. This will take around <strong>3 minutes. </strong></p><p>For an accurate measurement, please <strong><u>always</u></strong> follow the mouse cursor with your eyes. </p><br><p style=""text-align: center;"">Press Space to continue</p></div>","""","""","""",html-keyboard-response,11,27662,0.0-11.0,698,0,1,"c922 Pro Stream Webcam (046d:085c)",9ff821d7ff24bc1d762057feede70948adeac76826a7b0a159eb2ee6d0704fc8,60,0.0006510416666666666,1536,2304,"""",32,"""","""","""","""","""","""","""","""","""","""","""","2021-01-13 07:33:48",,"Mozilla/5.0 (Windows NT 10.0; Win64; x64) AppleWebKit/537.36 (KHTML, like Gecko) Chrome/87.0.4280.141 Safari/537.36",WebKit,Chrome,87.0.4280.141,Windows,10.0
14,1,null,"""","""","""","""",html-keyboard-response,12,27820,0.0-12.0-0.0,698,0,1,"c922 Pro Stream Webcam (046d:085c)",9ff821d7ff24bc1d762057feede70948adeac76826a7b0a159eb2ee6d0704fc8,60,0.0006510416666666666,1536,2304,"""",null,"""","""","""","""","""","""","""","""","""","""","""","2021-01-13 07:33:48",,"Mozilla/5.0 (Windows NT 10.0; Win64; x64) AppleWebKit/537.36 (KHTML, like Gecko) Chrome/87.0.4280.141 Safari/537.36",WebKit,Chrome,87.0.4280.141,Windows,10.0
14,1,null,"""","""","""","""",html-keyboard-response,13,27954,0.0-12.0-1.0,698,0,1,"c922 Pro Stream Webcam (046d:085c)",9ff821d7ff24bc1d762057feede70948adeac76826a7b0a159eb2ee6d0704fc8,60,0.0006510416666666666,1536,2304,"""",null,"""","""","""","""","""","""","""","""","""","""","""","2021-01-13 07:33:48",,"Mozilla/5.0 (Windows NT 10.0; Win64; x64) AppleWebKit/537.36 (KHTML, like Gecko) Chrome/87.0.4280.141 Safari/537.36",WebKit,Chrome,87.0.4280.141,Windows,10.0
14,1,null,"""","""","""","""",html-keyboard-response,14,29464,0.0-12.0-2.0-0.0,698,0,1,"c922 Pro Stream Webcam (046d:085c)",9ff821d7ff24bc1d762057feede70948adeac76826a7b0a159eb2ee6d0704fc8,60,0.0006510416666666666,1536,2304,"""",null,"""","""","""","""","""","""","""","""","""","""","""","2021-01-13 07:33:48",,"Mozilla/5.0 (Windows NT 10.0; Win64; x64) AppleWebKit/537.36 (KHTML, like Gecko) Chrome/87.0.4280.141 Safari/537.36",WebKit,Chrome,87.0.4280.141,Windows,10.0
14,1,"""","""","""",1280,720,eyetracking-calibration,15,33560,0.0-12.0-2.0-1.0,698,0,1,"c922 Pro Stream Webcam (046d:085c)",9ff821d7ff24bc1d762057feede70948adeac76826a7b0a159eb2ee6d0704fc8,60,0.0006510416666666666,1536,2304,"""","""","""",0.8,0.5,0,0,"{""history"":[{""relative-x"":0.50859375,""relative-y"":0.4930555555555556,""elapse-time"":92.10500004701316},{""relative-x"":0.54140625,""relative-y"":0.4027777777777778,""elapse-time"":139.42000013776124},{""relative-x"":0.5421875,""relative-y"":0.38333333333333336,""elapse-time"":164.02500006370246},{""relative-x"":0.53359375,""relative-y"":0.39305555555555555,""elapse-time"":187.48000008054078},{""relative-x"":0.53671875,""relative-y"":0.4263888888888889,""elapse-time"":211.36000007390976},{""relative-x"":0.56953125,""relative-y"":0.375,""elapse-time"":235.74999999254942},{""relative-x"":0.56953125,""relative-y"":0.375,""elapse-time"":260.3649999946356},{""relative-x"":0.5578125,""relative-y"":0.39444444444444443,""elapse-time"":285.24000011384487},{""relative-x"":0.57578125,""relative-y"":0.42777777777777776,""elapse-time"":308.30000014975667},{""relative-x"":0.5625,""relative-y"":0.3486111111111111,""elapse-time"":334.4100001268089},{""relative-x"":0.56171875,""relative-y"":0.3638888888888889,""elapse-time"":360.67500011995435},{""relative-x"":0.56171875,""relative-y"":0.3861111111111111,""elapse-time"":384.9649999756366},{""relative-x"":0.56953125,""relative-y"":0.41805555555555557,""elapse-time"":406.7650001961738},{""relative-x"":0.56875,""relative-y"":0.41944444444444445,""elapse-time"":430.2050000987947},{""relative-x"":0.56484375,""relative-y"":0.33611111111111114,""elapse-time"":452.8250000439584},{""relative-x"":0.5625,""relative-y"":0.35555555555555557,""elapse-time"":477.7650001924485},{""relative-x"":0.5671875,""relative-y"":0.3375,""elapse-time"":502.2150001022965},{""relative-x"":0.57890625,""relative-y"":0.3527777777777778,""elapse-time"":526.2649999931455},{""relative-x"":0.5828125,""relative-y"":0.3388888888888889,""elapse-time"":553.8300001062453},{""relative-x"":0.55,""relative-y"":0.3611111111111111,""elapse-time"":583.9450000785291},{""relative-x"":0.5796875,""relative-y"":0.325,""elapse-time"":615.5650001019239},{""relative-x"":0.5734375,""relative-y"":0.33194444444444443,""elapse-time"":640.5350000131875},{""relative-x"":0.62734375,""relative-y"":0.2722222222222222,""elapse-time"":673.685000045225},{""relative-x"":0.59375,""relative-y"":0.25972222222222224,""elapse-time"":699.5250000618398},{""relative-x"":0.65234375,""relative-y"":0.275,""elapse-time"":733.5150002036244},{""relative-x"":0.67421875,""relative-y"":0.23472222222222222,""elapse-time"":759.4500000122935},{""relative-x"":0.70546875,""relative-y"":0.22916666666666666,""elapse-time"":792.2249999828637},{""relative-x"":0.6625,""relative-y"":0.2263888888888889,""elapse-time"":844.0849999897182},{""relative-x"":0.734375,""relative-y"":0.3527777777777778,""elapse-time"":883.3149999845773},{""relative-x"":0.7015625,""relative-y"":0.31666666666666665,""elapse-time"":911.5850001107901},{""relative-x"":0.7421875,""relative-y"":0.48055555555555557,""elapse-time"":943.9600000623614},{""relative-x"":0.64765625,""relative-y"":0.1597222222222222,""elapse-time"":970.4800001345575},{""relative-x"":0.74140625,""relative-y"":0.5166666666666667,""elapse-time"":1002.9300001915544},{""relative-x"":0.70625,""relative-y"":0.5138888888888888,""elapse-time"":1027.680000057444},{""relative-x"":0.7546875,""relative-y"":0.32222222222222224,""elapse-time"":1064.7350000217557},{""relative-x"":0.66484375,""relative-y"":0.375,""elapse-time"":1089.9500001687557},{""relative-x"":0.65703125,""relative-y"":0.4361111111111111,""elapse-time"":1115.9450002014637},{""relative-x"":0.61796875,""relative-y"":0.39305555555555555,""elapse-time"":1144.910000031814},{""relative-x"":0.6515625,""relative-y"":0.44027777777777777,""elapse-time"":1171.6599999926984},{""relative-x"":0.71015625,""relative-y"":0.5569444444444445,""elapse-time"":1198.9649999886751},{""relative-x"":0.7109375,""relative-y"":0.29444444444444445,""elapse-time"":1225.4050001502037},{""relative-x"":0.79140625,""relative-y"":0.5208333333333334,""elapse-time"":1261.970000108704},{""relative-x"":0.821875,""relative-y"":0.5402777777777777,""elapse-time"":1288.8700000476092},{""relative-x"":0.81953125,""relative-y"":0.5652777777777778,""elapse-time"":1314.0000000130385},{""relative-x"":0.821875,""relative-y"":0.5930555555555556,""elapse-time"":1348.4400000888854},{""relative-x"":0.7921875,""relative-y"":0.4847222222222222,""elapse-time"":1375.2350001595914},{""relative-x"":0.81484375,""relative-y"":0.5263888888888889,""elapse-time"":1401.6350000165403},{""relative-x"":0.80703125,""relative-y"":0.48055555555555557,""elapse-time"":1428.3050000667572},{""relative-x"":0.809375,""relative-y"":0.44166666666666665,""elapse-time"":1454.9600000027567},{""relative-x"":0.81796875,""relative-y"":0.44166666666666665,""elapse-time"":1479.5600001234561},{""relative-x"":0.7796875,""relative-y"":0.3,""elapse-time"":1514.0500001143664},{""relative-x"":0.7109375,""relative-y"":0.5444444444444444,""elapse-time"":1540.48000019975},{""relative-x"":0.78515625,""relative-y"":0.5625,""elapse-time"":1567.9399999789894},{""relative-x"":0.80703125,""relative-y"":0.5722222222222222,""elapse-time"":1595.4050000291318},{""relative-x"":0.78515625,""relative-y"":0.5722222222222222,""elapse-time"":1624.6650000102818},{""relative-x"":0.73203125,""relative-y"":0.35138888888888886,""elapse-time"":1650.3650001250207},{""relative-x"":0.821875,""relative-y"":0.6041666666666666,""elapse-time"":1687.1850001625717},{""relative-x"":0.83046875,""relative-y"":0.6902777777777778,""elapse-time"":1712.7750001382083},{""relative-x"":0.82890625,""relative-y"":0.6847222222222222,""elapse-time"":1739.6350000053644},{""relative-x"":0.82734375,""relative-y"":0.6666666666666666,""elapse-time"":1766.2700000219047},{""relative-x"":0.8,""relative-y"":0.43333333333333335,""elapse-time"":1793.1700001936406},{""relative-x"":0.7703125,""relative-y"":0.41388888888888886,""elapse-time"":1817.7900000009686},{""relative-x"":0.778125,""relative-y"":0.4152777777777778,""elapse-time"":1841.9749999884516},{""relative-x"":0.8265625,""relative-y"":0.5458333333333333,""elapse-time"":1871.6450000647455},{""relative-x"":0.8265625,""relative-y"":0.5458333333333333,""elapse-time"":1896.6400001663715},{""relative-x"":0.8375,""relative-y"":0.5583333333333333,""elapse-time"":1922.9500000365078},{""relative-x"":0.8265625,""relative-y"":0.5472222222222223,""elapse-time"":1958.6700000800192},{""relative-x"":0.8296875,""relative-y"":0.55,""elapse-time"":1985.1699999999255},{""relative-x"":0.79453125,""relative-y"":0.5305555555555556,""elapse-time"":2008.7100001983345},{""relative-x"":0.803125,""relative-y"":0.5208333333333334,""elapse-time"":2035.3250000625849},{""relative-x"":0.828125,""relative-y"":0.5263888888888889,""elapse-time"":2060.23499998264},{""relative-x"":0.80390625,""relative-y"":0.5361111111111111,""elapse-time"":2086.1200001090765},{""relative-x"":0.825,""relative-y"":0.5430555555555555,""elapse-time"":2118.5600000899285},{""relative-x"":0.809375,""relative-y"":0.5347222222222222,""elapse-time"":2143.1850001681596},{""relative-x"":0.81328125,""relative-y"":0.5291666666666667,""elapse-time"":2168.3800001628697},{""relative-x"":0.821875,""relative-y"":0.5361111111111111,""elapse-time"":2195.784999988973},{""relative-x"":0.81328125,""relative-y"":0.5375,""elapse-time"":2221.2849999777973},{""relative-x"":0.82734375,""relative-y"":0.5375,""elapse-time"":2247.124999994412},{""relative-x"":0.81796875,""relative-y"":0.5541666666666667,""elapse-time"":2279.9900001846254},{""relative-x"":0.81015625,""relative-y"":0.5430555555555555,""elapse-time"":2304.8700001090765},{""relative-x"":0.84453125,""relative-y"":0.5458333333333333,""elapse-time"":2329.7000001184642},{""relative-x"":0.84375,""relative-y"":0.5375,""elapse-time"":2379.655000055209},{""relative-x"":0.81171875,""relative-y"":0.5694444444444444,""elapse-time"":2410.649999976158},{""relative-x"":0.81015625,""relative-y"":0.5611111111111111,""elapse-time"":2437.8949999809265},{""relative-x"":0.809375,""relative-y"":0.5569444444444445,""elapse-time"":2469.6700000204146},{""relative-x"":0.846875,""relative-y"":0.5430555555555555,""elapse-time"":2496.2250001262873},{""relative-x"":0.84609375,""relative-y"":0.5361111111111111,""elapse-time"":2522.2650000359863},{""relative-x"":0.815625,""relative-y"":0.5541666666666667,""elapse-time"":2546.1300001479685},{""relative-x"":0.83984375,""relative-y"":0.5583333333333333,""elapse-time"":2571.975000202656},{""relative-x"":0.828125,""relative-y"":0.5319444444444444,""elapse-time"":2608.0800001509488},{""relative-x"":0.83359375,""relative-y"":0.5333333333333333,""elapse-time"":2631.800000090152},{""relative-x"":0.84609375,""relative-y"":0.5388888888888889,""elapse-time"":2657.420000061393},{""relative-x"":0.8484375,""relative-y"":0.5527777777777778,""elapse-time"":2685.2500000968575},{""relative-x"":0.859375,""relative-y"":0.5555555555555556,""elapse-time"":2709.0350000653416},{""relative-x"":0.79765625,""relative-y"":0.5555555555555556,""elapse-time"":2735.415000002831},{""relative-x"":0.79765625,""relative-y"":0.5555555555555556,""elapse-time"":2761.7950001731515},{""relative-x"":0.825,""relative-y"":0.5486111111111112,""elapse-time"":2794.495000038296},{""relative-x"":0.82109375,""relative-y"":0.5416666666666666,""elapse-time"":2822.61999999173},{""relative-x"":0.81484375,""relative-y"":0.55,""elapse-time"":2846.3950001168996},{""relative-x"":0.81484375,""relative-y"":0.55,""elapse-time"":2873.155000153929},{""relative-x"":0.8234375,""relative-y"":0.5430555555555555,""elapse-time"":2901.659999974072},{""relative-x"":0.83125,""relative-y"":0.5541666666666667,""elapse-time"":2928.3200001809746},{""relative-x"":0.81953125,""relative-y"":0.5458333333333333,""elapse-time"":2964.3700001761317},{""relative-x"":0.82734375,""relative-y"":0.55,""elapse-time"":2989.8750002030283},{""relative-x"":0.825,""relative-y"":0.5402777777777777,""elapse-time"":3015.110000036657},{""relative-x"":0.8375,""relative-y"":0.55,""elapse-time"":3041.5550000034273},{""relative-x"":0.8375,""relative-y"":0.55,""elapse-time"":3071.430000010878},{""relative-x"":0.83125,""relative-y"":0.5541666666666667,""elapse-time"":3108.320000115782},{""relative-x"":0.8390625,""relative-y"":0.5430555555555555,""elapse-time"":3134.169999975711},{""relative-x"":0.8390625,""relative-y"":0.5430555555555555,""elapse-time"":3159.8750001285225},{""relative-x"":0.82890625,""relative-y"":0.55,""elapse-time"":3183.6300001014024},{""relative-x"":0.8265625,""relative-y"":0.5458333333333333,""elapse-time"":3211.800000164658},{""relative-x"":0.8265625,""relative-y"":0.5458333333333333,""elapse-time"":3235.910000046715},{""relative-x"":0.83984375,""relative-y"":0.5541666666666667,""elapse-time"":3260.170000139624},{""relative-x"":0.83125,""relative-y"":0.5569444444444445,""elapse-time"":3285.2750001475215},{""relative-x"":0.83203125,""relative-y"":0.5652777777777778,""elapse-time"":3309.7449999768287},{""relative-x"":0.83203125,""relative-y"":0.5652777777777778,""elapse-time"":3336.030000122264},{""relative-x"":0.8390625,""relative-y"":0.5513888888888889,""elapse-time"":3364.500000141561},{""relative-x"":0.81484375,""relative-y"":0.5486111111111112,""elapse-time"":3391.245000064373},{""relative-x"":0.84765625,""relative-y"":0.5388888888888889,""elapse-time"":3424.475000007078},{""relative-x"":0.82109375,""relative-y"":0.5625,""elapse-time"":3451.375000178814},{""relative-x"":0.84609375,""relative-y"":0.5555555555555556,""elapse-time"":3477.2200000006706},{""relative-x"":0.83671875,""relative-y"":0.5444444444444444,""elapse-time"":3503.3299999777228},{""relative-x"":0.83671875,""relative-y"":0.5444444444444444,""elapse-time"":3527.415000135079},{""relative-x"":0.82578125,""relative-y"":0.5472222222222223,""elapse-time"":3555.180000141263},{""relative-x"":0.84609375,""relative-y"":0.5444444444444444,""elapse-time"":3589.885000139475},{""relative-x"":0.82109375,""relative-y"":0.5555555555555556,""elapse-time"":3615.26000010781},{""relative-x"":0.825,""relative-y"":0.5555555555555556,""elapse-time"":3644.960000179708},{""relative-x"":0.79921875,""relative-y"":0.5555555555555556,""elapse-time"":3670.050000073388},{""relative-x"":0.8015625,""relative-y"":0.5458333333333333,""elapse-time"":3697.010000003502},{""relative-x"":0.81328125,""relative-y"":0.5472222222222223,""elapse-time"":3722.47500019148},{""relative-x"":0.8234375,""relative-y"":0.5402777777777777,""elapse-time"":3750.884999986738},{""relative-x"":0.834375,""relative-y"":0.5444444444444444,""elapse-time"":3787.525000050664},{""relative-x"":0.825,""relative-y"":0.5444444444444444,""elapse-time"":3811.519999988377},{""relative-x"":0.82421875,""relative-y"":0.5416666666666666,""elapse-time"":3840.0799999944866},{""relative-x"":0.82421875,""relative-y"":0.5416666666666666,""elapse-time"":3868.8750001601875},{""relative-x"":0.82890625,""relative-y"":0.5597222222222222,""elapse-time"":3892.7350000012666},{""relative-x"":0.8234375,""relative-y"":0.5513888888888889,""elapse-time"":3943.720000097528},{""relative-x"":0.83515625,""relative-y"":0.55,""elapse-time"":3985.1699999999255},{""relative-x"":0.8328125,""relative-y"":0.5375,""elapse-time"":4009.1650001704693},{""relative-x"":0.8328125,""relative-y"":0.5375,""elapse-time"":4036.8449999950826}]}","""","""","""","""","""","2021-01-13 07:33:48",,"Mozilla/5.0 (Windows NT 10.0; Win64; x64) AppleWebKit/537.36 (KHTML, like Gecko) Chrome/87.0.4280.141 Safari/537.36",WebKit,Chrome,87.0.4280.141,Windows,10.0
14,1,null,"""","""","""","""",html-keyboard-response,16,35067,0.0-12.0-2.0-0.1,698,0,1,"c922 Pro Stream Webcam (046d:085c)",9ff821d7ff24bc1d762057feede70948adeac76826a7b0a159eb2ee6d0704fc8,60,0.0006510416666666666,1536,2304,"""",null,"""","""","""","""","""","""","""","""","""","""","""","2021-01-13 07:33:48",,"Mozilla/5.0 (Windows NT 10.0; Win64; x64) AppleWebKit/537.36 (KHTML, like Gecko) Chrome/87.0.4280.141 Safari/537.36",WebKit,Chrome,87.0.4280.141,Windows,10.0
14,1,"""","""","""",1280,720,eyetracking-calibration,17,38598,0.0-12.0-2.0-1.1,698,0,1,"c922 Pro Stream Webcam (046d:085c)",9ff821d7ff24bc1d762057feede70948adeac76826a7b0a159eb2ee6d0704fc8,60,0.0006510416666666666,1536,2304,"""","""","""",0.8,0.8,0,0,"{""history"":[{""relative-x"":0.81640625,""relative-y"":0.5430555555555555,""elapse-time"":126.3300001155585},{""relative-x"":0.68203125,""relative-y"":0.48194444444444445,""elapse-time"":182.45000019669533},{""relative-x"":0.7046875,""relative-y"":0.4791666666666667,""elapse-time"":217.04500005580485},{""relative-x"":0.74453125,""relative-y"":0.5305555555555556,""elapse-time"":243.03000001236796},{""relative-x"":0.7,""relative-y"":0.4861111111111111,""elapse-time"":274.3400000035763},{""relative-x"":0.7765625,""relative-y"":0.5319444444444444,""elapse-time"":300.810000160709},{""relative-x"":0.74140625,""relative-y"":0.5208333333333334,""elapse-time"":332.7550000976771},{""relative-x"":0.76796875,""relative-y"":0.5291666666666667,""elapse-time"":358.3700000308454},{""relative-x"":0.7453125,""relative-y"":0.6277777777777778,""elapse-time"":391.23000018298626},{""relative-x"":0.7375,""relative-y"":0.6069444444444444,""elapse-time"":420.030000153929},{""relative-x"":0.72578125,""relative-y"":0.6513888888888889,""elapse-time"":453.06000020354986},{""relative-x"":0.753125,""relative-y"":0.6944444444444444,""elapse-time"":479.73000002093613},{""relative-x"":0.79140625,""relative-y"":0.8291666666666667,""elapse-time"":514.2400001641363},{""relative-x"":0.81015625,""relative-y"":0.8180555555555555,""elapse-time"":540.3650000225753},{""relative-x"":0.82109375,""relative-y"":0.7694444444444445,""elapse-time"":568.8550001941621},{""relative-x"":0.796875,""relative-y"":0.7166666666666667,""elapse-time"":595.4550001770258},{""relative-x"":0.796875,""relative-y"":0.7166666666666667,""elapse-time"":621.1550000589341},{""relative-x"":0.8484375,""relative-y"":0.7847222222222222,""elapse-time"":654.1399999987334},{""relative-x"":0.78671875,""relative-y"":0.6986111111111111,""elapse-time"":681.8650001659989},{""relative-x"":0.8078125,""relative-y"":0.9180555555555555,""elapse-time"":714.125000173226},{""relative-x"":0.790625,""relative-y"":0.8972222222222223,""elapse-time"":741.8500001076609},{""relative-x"":0.7953125,""relative-y"":0.9527777777777777,""elapse-time"":773.8950001075864},{""relative-x"":0.8171875,""relative-y"":0.9013888888888889,""elapse-time"":799.305000109598},{""relative-x"":0.83828125,""relative-y"":0.8680555555555556,""elapse-time"":825.7550001144409},{""relative-x"":0.82109375,""relative-y"":0.9097222222222222,""elapse-time"":853.7950001191348},{""relative-x"":0.82109375,""relative-y"":0.9097222222222222,""elapse-time"":881.6200001165271},{""relative-x"":0.81953125,""relative-y"":0.8625,""elapse-time"":906.8450001068413},{""relative-x"":0.78671875,""relative-y"":0.8111111111111111,""elapse-time"":942.2850001137704},{""relative-x"":0.790625,""relative-y"":0.8611111111111112,""elapse-time"":970.7300001755357},{""relative-x"":0.7609375,""relative-y"":0.8388888888888889,""elapse-time"":995.9050000179559},{""relative-x"":0.7828125,""relative-y"":0.675,""elapse-time"":1541.4599999785423},{""relative-x"":0.84375,""relative-y"":0.7263888888888889,""elapse-time"":1623.4900001436472},{""relative-x"":0.809375,""relative-y"":0.7180555555555556,""elapse-time"":1682.075000135228},{""relative-x"":0.82265625,""relative-y"":0.8388888888888889,""elapse-time"":1716.285000089556},{""relative-x"":0.8546875,""relative-y"":0.8263888888888888,""elapse-time"":1743.3400000445545},{""relative-x"":0.85078125,""relative-y"":0.7569444444444444,""elapse-time"":1769.8400001972914},{""relative-x"":0.8671875,""relative-y"":0.8263888888888888,""elapse-time"":1796.2750000879169},{""relative-x"":0.8640625,""relative-y"":0.7666666666666667,""elapse-time"":1821.6550000943244},{""relative-x"":0.846875,""relative-y"":0.775,""elapse-time"":1848.0299999937415},{""relative-x"":0.78203125,""relative-y"":0.8486111111111111,""elapse-time"":1874.3700000923127},{""relative-x"":0.8296875,""relative-y"":0.7763888888888889,""elapse-time"":1900.0450000166893},{""relative-x"":0.825,""relative-y"":0.7708333333333334,""elapse-time"":1924.8300001490861},{""relative-x"":0.8171875,""relative-y"":0.7916666666666666,""elapse-time"":1957.0800000801682},{""relative-x"":0.81484375,""relative-y"":0.8194444444444444,""elapse-time"":1982.6950000133365},{""relative-x"":0.80390625,""relative-y"":0.8013888888888889,""elapse-time"":2011.3400002010167},{""relative-x"":0.76171875,""relative-y"":0.8333333333333334,""elapse-time"":2038.325000088662},{""relative-x"":0.828125,""relative-y"":0.8125,""elapse-time"":2065.954999998212},{""relative-x"":0.7515625,""relative-y"":0.8583333333333333,""elapse-time"":2100.075000198558},{""relative-x"":0.82578125,""relative-y"":0.8013888888888889,""elapse-time"":2133.529999991879},{""relative-x"":0.81953125,""relative-y"":0.7916666666666666,""elapse-time"":2156.900000059977},{""relative-x"":0.81953125,""relative-y"":0.7916666666666666,""elapse-time"":2183.7450000457466},{""relative-x"":0.79375,""relative-y"":0.8097222222222222,""elapse-time"":2213.200000114739},{""relative-x"":0.82421875,""relative-y"":0.7763888888888889,""elapse-time"":2239.2049999907613},{""relative-x"":0.8375,""relative-y"":0.7722222222222223,""elapse-time"":2283.005000092089},{""relative-x"":0.828125,""relative-y"":0.85,""elapse-time"":2308.9950000867248},{""relative-x"":0.8359375,""relative-y"":0.8125,""elapse-time"":2338.950000004843},{""relative-x"":0.83515625,""relative-y"":0.7805555555555556,""elapse-time"":2366.4049999788404},{""relative-x"":0.82421875,""relative-y"":0.7972222222222223,""elapse-time"":2395.1799999922514},{""relative-x"":0.81640625,""relative-y"":0.8027777777777778,""elapse-time"":2431.9250001572073},{""relative-x"":0.8140625,""relative-y"":0.8236111111111111,""elapse-time"":2455.5900001432747},{""relative-x"":0.82421875,""relative-y"":0.7805555555555556,""elapse-time"":2482.2900001890957},{""relative-x"":0.81796875,""relative-y"":0.8986111111111111,""elapse-time"":2515.224999981001},{""relative-x"":0.821875,""relative-y"":0.825,""elapse-time"":2542.2350000590086},{""relative-x"":0.81640625,""relative-y"":0.7916666666666666,""elapse-time"":2569.365000119433},{""relative-x"":0.8265625,""relative-y"":0.7902777777777777,""elapse-time"":2604.395000031218},{""relative-x"":0.8171875,""relative-y"":0.8166666666666667,""elapse-time"":2631.610000040382},{""relative-x"":0.83515625,""relative-y"":0.7861111111111111,""elapse-time"":2666.830000001937},{""relative-x"":0.81171875,""relative-y"":0.8208333333333333,""elapse-time"":2690.720000071451},{""relative-x"":0.8171875,""relative-y"":0.8180555555555555,""elapse-time"":2717.9400001186877},{""relative-x"":0.8109375,""relative-y"":0.8666666666666667,""elapse-time"":2743.7950000166893},{""relative-x"":0.8265625,""relative-y"":0.7958333333333333,""elapse-time"":2788.524999981746},{""relative-x"":0.82265625,""relative-y"":0.8555555555555555,""elapse-time"":2819.499999983236},{""relative-x"":0.8140625,""relative-y"":0.8263888888888888,""elapse-time"":2846.780000021681},{""relative-x"":0.828125,""relative-y"":0.8013888888888889,""elapse-time"":2871.820000000298},{""relative-x"":0.81953125,""relative-y"":0.8236111111111111,""elapse-time"":2901.520000072196},{""relative-x"":0.81875,""relative-y"":0.8777777777777778,""elapse-time"":2934.5250001642853},{""relative-x"":0.8203125,""relative-y"":0.8305555555555556,""elapse-time"":2958.970000036061},{""relative-x"":0.79296875,""relative-y"":0.8583333333333333,""elapse-time"":2987.9700001329184},{""relative-x"":0.84296875,""relative-y"":0.7930555555555555,""elapse-time"":3014.7750000469387},{""relative-x"":0.80703125,""relative-y"":0.775,""elapse-time"":3041.2900000810623},{""relative-x"":0.8234375,""relative-y"":0.8194444444444444,""elapse-time"":3069.755000062287},{""relative-x"":0.80078125,""relative-y"":0.8458333333333333,""elapse-time"":3107.120000058785},{""relative-x"":0.8125,""relative-y"":0.8305555555555556,""elapse-time"":3132.885000202805},{""relative-x"":0.8125,""relative-y"":0.7708333333333334,""elapse-time"":3162.5800000038},{""relative-x"":0.825,""relative-y"":0.7986111111111112,""elapse-time"":3188.2200001273304},{""relative-x"":0.7984375,""relative-y"":0.8291666666666667,""elapse-time"":3237.0649999938905},{""relative-x"":0.821875,""relative-y"":0.8472222222222222,""elapse-time"":3282.1100000292063},{""relative-x"":0.8234375,""relative-y"":0.7986111111111112,""elapse-time"":3306.9050000049174},{""relative-x"":0.81796875,""relative-y"":0.8416666666666667,""elapse-time"":3333.4800000302494},{""relative-x"":0.815625,""relative-y"":0.8055555555555556,""elapse-time"":3359.2550000175834},{""relative-x"":0.8390625,""relative-y"":0.8263888888888888,""elapse-time"":3385.665000183508},{""relative-x"":0.83984375,""relative-y"":0.7972222222222223,""elapse-time"":3412.9300001077354},{""relative-x"":0.8234375,""relative-y"":0.8180555555555555,""elapse-time"":3439.3550001550466},{""relative-x"":0.80859375,""relative-y"":0.7861111111111111,""elapse-time"":3464.525000192225},{""relative-x"":0.81640625,""relative-y"":0.7986111111111112,""elapse-time"":3489.5800000522286},{""relative-x"":0.82734375,""relative-y"":0.7555555555555555,""elapse-time"":3518.195000011474}]}","""","""","""","""","""","2021-01-13 07:33:48",,"Mozilla/5.0 (Windows NT 10.0; Win64; x64) AppleWebKit/537.36 (KHTML, like Gecko) Chrome/87.0.4280.141 Safari/537.36",WebKit,Chrome,87.0.4280.141,Windows,10.0
14,1,null,"""","""","""","""",html-keyboard-response,18,40104,0.0-12.0-2.0-0.2,698,0,1,"c922 Pro Stream Webcam (046d:085c)",9ff821d7ff24bc1d762057feede70948adeac76826a7b0a159eb2ee6d0704fc8,60,0.0006510416666666666,1536,2304,"""",null,"""","""","""","""","""","""","""","""","""","""","""","2021-01-13 07:33:48",,"Mozilla/5.0 (Windows NT 10.0; Win64; x64) AppleWebKit/537.36 (KHTML, like Gecko) Chrome/87.0.4280.141 Safari/537.36",WebKit,Chrome,87.0.4280.141,Windows,10.0
14,1,"""","""","""",1280,720,eyetracking-calibration,19,43492,0.0-12.0-2.0-1.2,698,0,1,"c922 Pro Stream Webcam (046d:085c)",9ff821d7ff24bc1d762057feede70948adeac76826a7b0a159eb2ee6d0704fc8,60,0.0006510416666666666,1536,2304,"""","""","""",0.35,0.35,0,0,"{""history"":[{""relative-x"":0.76484375,""relative-y"":0.7430555555555556,""elapse-time"":88.16000004298985},{""relative-x"":0.7640625,""relative-y"":0.6986111111111111,""elapse-time"":115.8200001809746},{""relative-x"":0.7296875,""relative-y"":0.5416666666666666,""elapse-time"":148.35500018671155},{""relative-x"":0.7296875,""relative-y"":0.5416666666666666,""elapse-time"":174.69000001437962},{""relative-x"":0.72265625,""relative-y"":0.5652777777777778,""elapse-time"":198.74000013805926},{""relative-x"":0.725,""relative-y"":0.6041666666666666,""elapse-time"":224.67000014148653},{""relative-x"":0.6203125,""relative-y"":0.4888888888888889,""elapse-time"":258.21000011637807},{""relative-x"":0.7109375,""relative-y"":0.5388888888888889,""elapse-time"":284.3600001651794},{""relative-x"":0.59296875,""relative-y"":0.4527777777777778,""elapse-time"":316.435000160709},{""relative-x"":0.59375,""relative-y"":0.4375,""elapse-time"":343.8900001347065},{""relative-x"":0.50625,""relative-y"":0.46944444444444444,""elapse-time"":376.7900001257658},{""relative-x"":0.47578125,""relative-y"":0.4875,""elapse-time"":405.1250000484288},{""relative-x"":0.5109375,""relative-y"":0.425,""elapse-time"":439.140000147745},{""relative-x"":0.50703125,""relative-y"":0.39166666666666666,""elapse-time"":465.07500018924475},{""relative-x"":0.4765625,""relative-y"":0.4930555555555556,""elapse-time"":497.91999999433756},{""relative-x"":0.41953125,""relative-y"":0.37916666666666665,""elapse-time"":526.2000001966953},{""relative-x"":0.41328125,""relative-y"":0.3958333333333333,""elapse-time"":558.7200000882149},{""relative-x"":0.4125,""relative-y"":0.3680555555555556,""elapse-time"":585.9400001354516},{""relative-x"":0.41953125,""relative-y"":0.3861111111111111,""elapse-time"":621.3250001892447},{""relative-x"":0.41953125,""relative-y"":0.3861111111111111,""elapse-time"":646.9350000843406},{""relative-x"":0.3734375,""relative-y"":0.32916666666666666,""elapse-time"":680.4800000973046},{""relative-x"":0.4203125,""relative-y"":0.40694444444444444,""elapse-time"":709.0200001839548},{""relative-x"":0.38828125,""relative-y"":0.39166666666666666,""elapse-time"":741.0200000740588},{""relative-x"":0.39609375,""relative-y"":0.4013888888888889,""elapse-time"":769.3849999923259},{""relative-x"":0.37265625,""relative-y"":0.38472222222222224,""elapse-time"":807.7850001864135},{""relative-x"":0.41015625,""relative-y"":0.3819444444444444,""elapse-time"":834.9150000140071},{""relative-x"":0.37109375,""relative-y"":0.38333333333333336,""elapse-time"":862.0500001125038},{""relative-x"":0.38671875,""relative-y"":0.37222222222222223,""elapse-time"":904.3500002007931},{""relative-x"":0.46796875,""relative-y"":0.47638888888888886,""elapse-time"":930.7450000196695},{""relative-x"":0.37734375,""relative-y"":0.4,""elapse-time"":963.2449999917299},{""relative-x"":0.3953125,""relative-y"":0.38472222222222224,""elapse-time"":993.3700000401586},{""relative-x"":0.38203125,""relative-y"":0.44027777777777777,""elapse-time"":1020.299999974668},{""relative-x"":0.40234375,""relative-y"":0.4388888888888889,""elapse-time"":1057.5800000224262},{""relative-x"":0.3640625,""relative-y"":0.3236111111111111,""elapse-time"":1095.0450000818819},{""relative-x"":0.3859375,""relative-y"":0.4041666666666667,""elapse-time"":1131.2250001356006},{""relative-x"":0.35625,""relative-y"":0.4305555555555556,""elapse-time"":1160.840000025928},{""relative-x"":0.38359375,""relative-y"":0.40694444444444444,""elapse-time"":1188.7750001624227},{""relative-x"":0.43203125,""relative-y"":0.4625,""elapse-time"":1214.6700001321733},{""relative-x"":0.36796875,""relative-y"":0.3527777777777778,""elapse-time"":1261.3000001292676},{""relative-x"":0.3703125,""relative-y"":0.3819444444444444,""elapse-time"":1289.8150000255555},{""relative-x"":0.3765625,""relative-y"":0.38472222222222224,""elapse-time"":1348.835000069812},{""relative-x"":0.3546875,""relative-y"":0.4152777777777778,""elapse-time"":1386.5850002039224},{""relative-x"":0.334375,""relative-y"":0.4013888888888889,""elapse-time"":1429.119999986142},{""relative-x"":0.34375,""relative-y"":0.37916666666666665,""elapse-time"":1455.4500000085682},{""relative-x"":0.34375,""relative-y"":0.37916666666666665,""elapse-time"":1484.9350000731647},{""relative-x"":0.34765625,""relative-y"":0.4125,""elapse-time"":1514.4700000528246},{""relative-x"":0.35078125,""relative-y"":0.4097222222222222,""elapse-time"":1541.5550000034273},{""relative-x"":0.33671875,""relative-y"":0.3875,""elapse-time"":1572.4750000517815},{""relative-x"":0.35234375,""relative-y"":0.3972222222222222,""elapse-time"":1609.2350000981241},{""relative-x"":0.31640625,""relative-y"":0.3888888888888889,""elapse-time"":1635.5100001674145},{""relative-x"":0.36171875,""relative-y"":0.3333333333333333,""elapse-time"":1662.789999973029},{""relative-x"":0.39375,""relative-y"":0.4263888888888889,""elapse-time"":1691.4050001651049},{""relative-x"":0.3625,""relative-y"":0.4027777777777778,""elapse-time"":1716.2250000983477},{""relative-x"":0.346875,""relative-y"":0.3680555555555556,""elapse-time"":1745.2050000429153},{""relative-x"":0.38671875,""relative-y"":0.37916666666666665,""elapse-time"":1789.8050001822412},{""relative-x"":0.43515625,""relative-y"":0.4,""elapse-time"":1816.9150000903755},{""relative-x"":0.37421875,""relative-y"":0.5138888888888888,""elapse-time"":1855.4100000765175},{""relative-x"":0.43515625,""relative-y"":0.4847222222222222,""elapse-time"":1882.6200000476092},{""relative-x"":0.38046875,""relative-y"":0.38472222222222224,""elapse-time"":1911.3450001459569},{""relative-x"":0.371875,""relative-y"":0.45694444444444443,""elapse-time"":1947.06999999471},{""relative-x"":0.38828125,""relative-y"":0.39305555555555555,""elapse-time"":1973.4300000127405},{""relative-x"":0.421875,""relative-y"":0.5555555555555556,""elapse-time"":2000.8549999911338},{""relative-x"":0.42890625,""relative-y"":0.575,""elapse-time"":2028.510000091046},{""relative-x"":0.38828125,""relative-y"":0.4666666666666667,""elapse-time"":2056.4500000327826},{""relative-x"":0.43828125,""relative-y"":0.45,""elapse-time"":2081.980000017211},{""relative-x"":0.3625,""relative-y"":0.5597222222222222,""elapse-time"":2119.505000067875},{""relative-x"":0.3640625,""relative-y"":0.3263888888888889,""elapse-time"":2147.035000147298},{""relative-x"":0.35234375,""relative-y"":0.36527777777777776,""elapse-time"":2173.644999973476},{""relative-x"":0.321875,""relative-y"":0.3736111111111111,""elapse-time"":2201.7600000835955},{""relative-x"":0.359375,""relative-y"":0.35555555555555557,""elapse-time"":2227.5249999947846},{""relative-x"":0.359375,""relative-y"":0.3347222222222222,""elapse-time"":2262.485000072047},{""relative-x"":0.3578125,""relative-y"":0.35,""elapse-time"":2290.6750000547618},{""relative-x"":0.35859375,""relative-y"":0.35,""elapse-time"":2319.6950000710785},{""relative-x"":0.346875,""relative-y"":0.4583333333333333,""elapse-time"":2355.7349999900907},{""relative-x"":0.3921875,""relative-y"":0.4861111111111111,""elapse-time"":2381.9099999964237},{""relative-x"":0.39765625,""relative-y"":0.4708333333333333,""elapse-time"":2411.260000197217},{""relative-x"":0.40546875,""relative-y"":0.425,""elapse-time"":2451.0250000748783},{""relative-x"":0.384375,""relative-y"":0.49583333333333335,""elapse-time"":2479.5350001659244},{""relative-x"":0.3734375,""relative-y"":0.4013888888888889,""elapse-time"":2508.495000191033},{""relative-x"":0.33828125,""relative-y"":0.34444444444444444,""elapse-time"":2537.0550001971424},{""relative-x"":0.3671875,""relative-y"":0.4666666666666667,""elapse-time"":2564.415000146255},{""relative-x"":0.39140625,""relative-y"":0.4791666666666667,""elapse-time"":2606.8349999841303},{""relative-x"":0.375,""relative-y"":0.4,""elapse-time"":2631.1749999877065},{""relative-x"":0.36328125,""relative-y"":0.46111111111111114,""elapse-time"":2658.5700002033263},{""relative-x"":0.3734375,""relative-y"":0.4125,""elapse-time"":2687.950000166893},{""relative-x"":0.39453125,""relative-y"":0.39861111111111114,""elapse-time"":2714.7600001189858},{""relative-x"":0.34453125,""relative-y"":0.3736111111111111,""elapse-time"":2742.3050000797957},{""relative-x"":0.396875,""relative-y"":0.3875,""elapse-time"":2777.815000154078},{""relative-x"":0.4,""relative-y"":0.4083333333333333,""elapse-time"":2804.1100001428276},{""relative-x"":0.39140625,""relative-y"":0.4222222222222222,""elapse-time"":2831.2950001563877},{""relative-x"":0.40703125,""relative-y"":0.4125,""elapse-time"":2860.7199999969453},{""relative-x"":0.40625,""relative-y"":0.48333333333333334,""elapse-time"":2887.1300001628697},{""relative-x"":0.40234375,""relative-y"":0.3861111111111111,""elapse-time"":2912.935000145808},{""relative-x"":0.3921875,""relative-y"":0.38472222222222224,""elapse-time"":2948.900000192225},{""relative-x"":0.3921875,""relative-y"":0.38472222222222224,""elapse-time"":2973.865000065416},{""relative-x"":0.3828125,""relative-y"":0.43472222222222223,""elapse-time"":3001.875000074506},{""relative-x"":0.35,""relative-y"":0.39305555555555555,""elapse-time"":3053.814999992028},{""relative-x"":0.3921875,""relative-y"":0.39305555555555555,""elapse-time"":3090.8250000793487},{""relative-x"":0.3671875,""relative-y"":0.3458333333333333,""elapse-time"":3128.7200001534075},{""relative-x"":0.4296875,""relative-y"":0.3902777777777778,""elapse-time"":3153.7600001320243},{""relative-x"":0.36171875,""relative-y"":0.3902777777777778,""elapse-time"":3183.275000192225},{""relative-x"":0.36171875,""relative-y"":0.3902777777777778,""elapse-time"":3211.970000062138},{""relative-x"":0.38828125,""relative-y"":0.39166666666666666,""elapse-time"":3239.8149999789894},{""relative-x"":0.36171875,""relative-y"":0.4083333333333333,""elapse-time"":3268.3250000700355},{""relative-x"":0.3765625,""relative-y"":0.41944444444444445,""elapse-time"":3302.2800001781434},{""relative-x"":0.359375,""relative-y"":0.4638888888888889,""elapse-time"":3329.284999985248},{""relative-x"":0.40234375,""relative-y"":0.4027777777777778,""elapse-time"":3355.710000032559},{""relative-x"":0.37109375,""relative-y"":0.45416666666666666,""elapse-time"":3380.42000005953}]}","""","""","""","""","""","2021-01-13 07:33:48",,"Mozilla/5.0 (Windows NT 10.0; Win64; x64) AppleWebKit/537.36 (KHTML, like Gecko) Chrome/87.0.4280.141 Safari/537.36",WebKit,Chrome,87.0.4280.141,Windows,10.0
14,1,null,"""","""","""","""",html-keyboard-response,20,44999,0.0-12.0-2.0-0.3,698,0,1,"c922 Pro Stream Webcam (046d:085c)",9ff821d7ff24bc1d762057feede70948adeac76826a7b0a159eb2ee6d0704fc8,60,0.0006510416666666666,1536,2304,"""",null,"""","""","""","""","""","""","""","""","""","""","""","2021-01-13 07:33:48",,"Mozilla/5.0 (Windows NT 10.0; Win64; x64) AppleWebKit/537.36 (KHTML, like Gecko) Chrome/87.0.4280.141 Safari/537.36",WebKit,Chrome,87.0.4280.141,Windows,10.0
14,1,"""","""","""",1280,720,eyetracking-calibration,21,48752,0.0-12.0-2.0-1.3,698,0,1,"c922 Pro Stream Webcam (046d:085c)",9ff821d7ff24bc1d762057feede70948adeac76826a7b0a159eb2ee6d0704fc8,60,0.0006510416666666666,1536,2304,"""","""","""",0.2,0.2,0,0,"{""history"":[{""relative-x"":0.38203125,""relative-y"":0.5041666666666667,""elapse-time"":64.40999987535179},{""relative-x"":0.35546875,""relative-y"":0.4666666666666667,""elapse-time"":89.2049998510629},{""relative-x"":0.3703125,""relative-y"":0.44027777777777777,""elapse-time"":115.34499982371926},{""relative-x"":0.39609375,""relative-y"":0.3736111111111111,""elapse-time"":142.20999996177852},{""relative-x"":0.36953125,""relative-y"":0.3875,""elapse-time"":167.2899997793138},{""relative-x"":0.35703125,""relative-y"":0.37083333333333335,""elapse-time"":194.0249998588115},{""relative-x"":0.37421875,""relative-y"":0.4041666666666667,""elapse-time"":219.319999916479},{""relative-x"":0.36953125,""relative-y"":0.36527777777777776,""elapse-time"":244.524999987334},{""relative-x"":0.28828125,""relative-y"":0.37083333333333335,""elapse-time"":271.4199998881668},{""relative-x"":0.2734375,""relative-y"":0.3472222222222222,""elapse-time"":297.3699998110533},{""relative-x"":0.33671875,""relative-y"":0.3486111111111111,""elapse-time"":329.87499982118607},{""relative-x"":0.29921875,""relative-y"":0.3194444444444444,""elapse-time"":357.44499997235835},{""relative-x"":0.3375,""relative-y"":0.32222222222222224,""elapse-time"":389.85999999567866},{""relative-x"":0.34765625,""relative-y"":0.3472222222222222,""elapse-time"":418.5199998319149},{""relative-x"":0.33359375,""relative-y"":0.3458333333333333,""elapse-time"":452.419999986887},{""relative-x"":0.28046875,""relative-y"":0.3125,""elapse-time"":478.8649999536574},{""relative-x"":0.36328125,""relative-y"":0.36527777777777776,""elapse-time"":512.1199998538941},{""relative-x"":0.3984375,""relative-y"":0.3527777777777778,""elapse-time"":539.8249998688698},{""relative-x"":0.3421875,""relative-y"":0.35694444444444445,""elapse-time"":574.6499998494983},{""relative-x"":0.321875,""relative-y"":0.325,""elapse-time"":600.7449999451637},{""relative-x"":0.29921875,""relative-y"":0.3638888888888889,""elapse-time"":635.9149999916553},{""relative-x"":0.28046875,""relative-y"":0.39166666666666666,""elapse-time"":662.5449999701232},{""relative-x"":0.24921875,""relative-y"":0.3888888888888889,""elapse-time"":692.1149999834597},{""relative-x"":0.2421875,""relative-y"":0.20555555555555555,""elapse-time"":729.8499997705221},{""relative-x"":0.303125,""relative-y"":0.27361111111111114,""elapse-time"":759.299999801442},{""relative-x"":0.240625,""relative-y"":0.26805555555555555,""elapse-time"":792.8399997763336},{""relative-x"":0.20546875,""relative-y"":0.23194444444444445,""elapse-time"":824.3199998978525},{""relative-x"":0.21015625,""relative-y"":0.20833333333333334,""elapse-time"":851.3799998909235},{""relative-x"":0.21015625,""relative-y"":0.20833333333333334,""elapse-time"":880.7799997739494},{""relative-x"":0.221875,""relative-y"":0.35694444444444445,""elapse-time"":910.0899999029934},{""relative-x"":0.21640625,""relative-y"":0.1597222222222222,""elapse-time"":944.7299998719245},{""relative-x"":0.28125,""relative-y"":0.32083333333333336,""elapse-time"":972.4500000011176},{""relative-x"":0.29375,""relative-y"":0.3277777777777778,""elapse-time"":998.9699998404831},{""relative-x"":0.21796875,""relative-y"":0.14722222222222223,""elapse-time"":1026.5199998393655},{""relative-x"":0.32890625,""relative-y"":0.39166666666666666,""elapse-time"":1061.879999935627},{""relative-x"":0.28125,""relative-y"":0.29444444444444445,""elapse-time"":1091.3799998816103},{""relative-x"":0.17734375,""relative-y"":0.1986111111111111,""elapse-time"":1117.9599999450147},{""relative-x"":0.26171875,""relative-y"":0.25555555555555554,""elapse-time"":1152.5099999271333},{""relative-x"":0.253125,""relative-y"":0.25555555555555554,""elapse-time"":1184.7199997864664},{""relative-x"":0.22265625,""relative-y"":0.25833333333333336,""elapse-time"":1210.1849999744445},{""relative-x"":0.2453125,""relative-y"":0.3736111111111111,""elapse-time"":1241.1649997811764},{""relative-x"":0.24609375,""relative-y"":0.3013888888888889,""elapse-time"":1293.5799998231232},{""relative-x"":0.2609375,""relative-y"":0.27361111111111114,""elapse-time"":1336.5049997810274},{""relative-x"":0.23359375,""relative-y"":0.3,""elapse-time"":1362.809999845922},{""relative-x"":0.26796875,""relative-y"":0.25277777777777777,""elapse-time"":1388.5999999474734},{""relative-x"":0.321875,""relative-y"":0.325,""elapse-time"":1423.8849999383092},{""relative-x"":0.26015625,""relative-y"":0.24722222222222223,""elapse-time"":1449.0749998949468},{""relative-x"":0.21953125,""relative-y"":0.24583333333333332,""elapse-time"":1476.479999953881},{""relative-x"":0.26796875,""relative-y"":0.3819444444444444,""elapse-time"":1517.174999928102},{""relative-x"":0.31640625,""relative-y"":0.4013888888888889,""elapse-time"":1545.1299999840558},{""relative-x"":0.246875,""relative-y"":0.31666666666666665,""elapse-time"":1572.1899999771267},{""relative-x"":0.2234375,""relative-y"":0.25555555555555554,""elapse-time"":1598.519999999553},{""relative-x"":0.23359375,""relative-y"":0.22083333333333333,""elapse-time"":1625.8799999486655},{""relative-x"":0.271875,""relative-y"":0.28888888888888886,""elapse-time"":1652.619999833405},{""relative-x"":0.25078125,""relative-y"":0.2763888888888889,""elapse-time"":1681.354999775067},{""relative-x"":0.34453125,""relative-y"":0.38472222222222224,""elapse-time"":1708.4199998062104},{""relative-x"":0.24140625,""relative-y"":0.2833333333333333,""elapse-time"":1735.774999950081},{""relative-x"":0.26015625,""relative-y"":0.31666666666666665,""elapse-time"":1763.8349998742342},{""relative-x"":0.2515625,""relative-y"":0.25833333333333336,""elapse-time"":1800.1949999015778},{""relative-x"":0.2296875,""relative-y"":0.24166666666666667,""elapse-time"":1827.7399998623878},{""relative-x"":0.2296875,""relative-y"":0.24166666666666667,""elapse-time"":1854.774999897927},{""relative-x"":0.22265625,""relative-y"":0.25,""elapse-time"":1882.7699997927994},{""relative-x"":0.27578125,""relative-y"":0.3263888888888889,""elapse-time"":1910.874999826774},{""relative-x"":0.203125,""relative-y"":0.18888888888888888,""elapse-time"":1938.8299998827279},{""relative-x"":0.23828125,""relative-y"":0.24583333333333332,""elapse-time"":1975.6199999246746},{""relative-x"":0.2625,""relative-y"":0.25416666666666665,""elapse-time"":2002.739999908954},{""relative-x"":0.2765625,""relative-y"":0.2388888888888889,""elapse-time"":2031.2149999663234},{""relative-x"":0.2984375,""relative-y"":0.30972222222222223,""elapse-time"":2058.729999931529},{""relative-x"":0.24296875,""relative-y"":0.29583333333333334,""elapse-time"":2084.0599997900426},{""relative-x"":0.24296875,""relative-y"":0.29583333333333334,""elapse-time"":2110.934999771416},{""relative-x"":0.2625,""relative-y"":0.3194444444444444,""elapse-time"":2139.9149999488145},{""relative-x"":0.23515625,""relative-y"":0.25416666666666665,""elapse-time"":2165.474999928847},{""relative-x"":0.2578125,""relative-y"":0.2833333333333333,""elapse-time"":2193.6549998354167},{""relative-x"":0.275,""relative-y"":0.2972222222222222,""elapse-time"":2222.6949997711927},{""relative-x"":0.24921875,""relative-y"":0.30972222222222223,""elapse-time"":2255.824999883771},{""relative-x"":0.2140625,""relative-y"":0.20555555555555555,""elapse-time"":2281.9849997758865},{""relative-x"":0.29765625,""relative-y"":0.3236111111111111,""elapse-time"":2309.5799998845905},{""relative-x"":0.290625,""relative-y"":0.2763888888888889,""elapse-time"":2339.5149998832494},{""relative-x"":0.334375,""relative-y"":0.33194444444444443,""elapse-time"":2367.2399998176843},{""relative-x"":0.2578125,""relative-y"":0.33055555555555555,""elapse-time"":2395.7499999087304},{""relative-x"":0.26171875,""relative-y"":0.19722222222222222,""elapse-time"":2430.909999879077},{""relative-x"":0.21640625,""relative-y"":0.1638888888888889,""elapse-time"":2457.814999856055},{""relative-x"":0.26796875,""relative-y"":0.23472222222222222,""elapse-time"":2483.574999962002},{""relative-x"":0.26796875,""relative-y"":0.23472222222222222,""elapse-time"":2511.6299998480827},{""relative-x"":0.2375,""relative-y"":0.2569444444444444,""elapse-time"":2539.244999876246},{""relative-x"":0.24453125,""relative-y"":0.24583333333333332,""elapse-time"":2566.194999963045},{""relative-x"":0.21875,""relative-y"":0.25833333333333336,""elapse-time"":2601.8449999392033},{""relative-x"":0.26484375,""relative-y"":0.2611111111111111,""elapse-time"":2628.064999822527},{""relative-x"":0.26484375,""relative-y"":0.2611111111111111,""elapse-time"":2655.029999790713},{""relative-x"":0.28671875,""relative-y"":0.3486111111111111,""elapse-time"":2683.564999839291},{""relative-x"":0.2203125,""relative-y"":0.29305555555555557,""elapse-time"":2710.749999852851},{""relative-x"":0.228125,""relative-y"":0.30833333333333335,""elapse-time"":2739.249999867752},{""relative-x"":0.26171875,""relative-y"":0.3472222222222222,""elapse-time"":2775.779999792576},{""relative-x"":0.515625,""relative-y"":0.5347222222222222,""elapse-time"":2804.0199999231845},{""relative-x"":0.87734375,""relative-y"":0.85,""elapse-time"":2831.474999897182},{""relative-x"":0.83828125,""relative-y"":0.8805555555555555,""elapse-time"":2859.81999989599},{""relative-x"":0.77890625,""relative-y"":0.8458333333333333,""elapse-time"":2912.104999879375},{""relative-x"":0.3578125,""relative-y"":0.4513888888888889,""elapse-time"":2959.0999998617917},{""relative-x"":0.690625,""relative-y"":0.8069444444444445,""elapse-time"":2986.299999989569},{""relative-x"":0.62265625,""relative-y"":0.47638888888888886,""elapse-time"":3014.344999799505},{""relative-x"":0.628125,""relative-y"":0.6236111111111111,""elapse-time"":3041.09499999322},{""relative-x"":0.596875,""relative-y"":0.4625,""elapse-time"":3070.9049999713898},{""relative-x"":0.43828125,""relative-y"":0.48055555555555557,""elapse-time"":3097.444999963045},{""relative-x"":0.4921875,""relative-y"":0.45555555555555555,""elapse-time"":3124.759999802336},{""relative-x"":0.20546875,""relative-y"":0.13472222222222222,""elapse-time"":3161.809999961406},{""relative-x"":0.19609375,""relative-y"":0.13333333333333333,""elapse-time"":3187.0649999473244},{""relative-x"":0.41015625,""relative-y"":0.5069444444444444,""elapse-time"":3216.6999999899417},{""relative-x"":0.575,""relative-y"":0.5333333333333333,""elapse-time"":3243.6799998395145},{""relative-x"":0.66171875,""relative-y"":0.5861111111111111,""elapse-time"":3273.2549998909235},{""relative-x"":0.525,""relative-y"":0.39166666666666666,""elapse-time"":3299.7249998152256},{""relative-x"":0.4140625,""relative-y"":0.3472222222222222,""elapse-time"":3339.4749998115003},{""relative-x"":0.3359375,""relative-y"":0.32083333333333336,""elapse-time"":3367.0149999670684},{""relative-x"":0.33046875,""relative-y"":0.3458333333333333,""elapse-time"":3394.794999854639},{""relative-x"":0.32578125,""relative-y"":0.3388888888888889,""elapse-time"":3422.3149998579174},{""relative-x"":0.32890625,""relative-y"":0.38472222222222224,""elapse-time"":3449.2149997968227},{""relative-x"":0.30703125,""relative-y"":0.29444444444444445,""elapse-time"":3476.7699998337775},{""relative-x"":0.2609375,""relative-y"":0.30694444444444446,""elapse-time"":3514.1299997922033},{""relative-x"":0.23984375,""relative-y"":0.2833333333333333,""elapse-time"":3541.4249999448657},{""relative-x"":0.22421875,""relative-y"":0.2847222222222222,""elapse-time"":3569.249999942258},{""relative-x"":0.25,""relative-y"":0.3472222222222222,""elapse-time"":3597.53999998793},{""relative-x"":0.24453125,""relative-y"":0.275,""elapse-time"":3625.2299998886883},{""relative-x"":0.2125,""relative-y"":0.2222222222222222,""elapse-time"":3653.9099998772144},{""relative-x"":0.328125,""relative-y"":0.29583333333333334,""elapse-time"":3681.1149998102337},{""relative-x"":0.1703125,""relative-y"":0.28055555555555556,""elapse-time"":3715.149999829009},{""relative-x"":0.27265625,""relative-y"":0.3125,""elapse-time"":3745.7099999301136}]}","""","""","""","""","""","2021-01-13 07:33:48",,"Mozilla/5.0 (Windows NT 10.0; Win64; x64) AppleWebKit/537.36 (KHTML, like Gecko) Chrome/87.0.4280.141 Safari/537.36",WebKit,Chrome,87.0.4280.141,Windows,10.0
14,1,null,"""","""","""","""",html-keyboard-response,22,50255,0.0-12.0-2.0-0.4,698,0,1,"c922 Pro Stream Webcam (046d:085c)",9ff821d7ff24bc1d762057feede70948adeac76826a7b0a159eb2ee6d0704fc8,60,0.0006510416666666666,1536,2304,"""",null,"""","""","""","""","""","""","""","""","""","""","""","2021-01-13 07:33:48",,"Mozilla/5.0 (Windows NT 10.0; Win64; x64) AppleWebKit/537.36 (KHTML, like Gecko) Chrome/87.0.4280.141 Safari/537.36",WebKit,Chrome,87.0.4280.141,Windows,10.0
14,1,"""","""","""",1280,720,eyetracking-calibration,23,54063,0.0-12.0-2.0-1.4,698,0,1,"c922 Pro Stream Webcam (046d:085c)",9ff821d7ff24bc1d762057feede70948adeac76826a7b0a159eb2ee6d0704fc8,60,0.0006510416666666666,1536,2304,"""","""","""",0.2,0.8,0,0,"{""history"":[{""relative-x"":0.3578125,""relative-y"":0.4444444444444444,""elapse-time"":101.69999999925494},{""relative-x"":0.396875,""relative-y"":0.33055555555555555,""elapse-time"":148.5800000373274},{""relative-x"":0.41015625,""relative-y"":0.38055555555555554,""elapse-time"":188.15500009804964},{""relative-x"":0.38125,""relative-y"":0.37916666666666665,""elapse-time"":233.0849999561906},{""relative-x"":0.40078125,""relative-y"":0.4263888888888889,""elapse-time"":261.39999995939434},{""relative-x"":0.45546875,""relative-y"":0.4597222222222222,""elapse-time"":288.1650000344962},{""relative-x"":0.45234375,""relative-y"":0.4875,""elapse-time"":317.8850000258535},{""relative-x"":0.425,""relative-y"":0.42916666666666664,""elapse-time"":344.90000014193356},{""relative-x"":0.459375,""relative-y"":0.4166666666666667,""elapse-time"":378.26000014320016},{""relative-x"":0.37578125,""relative-y"":0.3763888888888889,""elapse-time"":407.73500013165176},{""relative-x"":0.390625,""relative-y"":0.6083333333333333,""elapse-time"":441.49999995715916},{""relative-x"":0.4140625,""relative-y"":0.65,""elapse-time"":468.2249999605119},{""relative-x"":0.2734375,""relative-y"":0.6333333333333333,""elapse-time"":503.9250000845641},{""relative-x"":0.28359375,""relative-y"":0.5305555555555556,""elapse-time"":532.0200000423938},{""relative-x"":0.35390625,""relative-y"":0.6625,""elapse-time"":566.4150000084192},{""relative-x"":0.3875,""relative-y"":0.6791666666666667,""elapse-time"":595.9850000217557},{""relative-x"":0.24375,""relative-y"":0.7486111111111111,""elapse-time"":629.3500000610948},{""relative-x"":0.21171875,""relative-y"":0.5708333333333333,""elapse-time"":658.3650000393391},{""relative-x"":0.2703125,""relative-y"":0.8472222222222222,""elapse-time"":694.0850000828505},{""relative-x"":0.2671875,""relative-y"":0.7305555555555555,""elapse-time"":722.2750000655651},{""relative-x"":0.26484375,""relative-y"":0.6930555555555555,""elapse-time"":758.5899999830872},{""relative-x"":0.21484375,""relative-y"":0.6430555555555556,""elapse-time"":788.5499999392778},{""relative-x"":0.296875,""relative-y"":0.6652777777777777,""elapse-time"":822.3600001074374},{""relative-x"":0.20703125,""relative-y"":0.8194444444444444,""elapse-time"":853.2300000078976},{""relative-x"":0.3,""relative-y"":0.7791666666666667,""elapse-time"":915.5800000298768},{""relative-x"":0.34453125,""relative-y"":0.7944444444444444,""elapse-time"":953.6000001244247},{""relative-x"":0.25,""relative-y"":0.7555555555555555,""elapse-time"":996.1300001014024},{""relative-x"":0.28359375,""relative-y"":0.8736111111111111,""elapse-time"":1022.7950001135468},{""relative-x"":0.26015625,""relative-y"":0.7638888888888888,""elapse-time"":1049.6600000187755},{""relative-x"":0.25546875,""relative-y"":0.8222222222222222,""elapse-time"":1077.9399999883026},{""relative-x"":0.19921875,""relative-y"":0.6736111111111112,""elapse-time"":1107.5500000733882},{""relative-x"":0.2640625,""relative-y"":0.7277777777777777,""elapse-time"":1136.5450001321733},{""relative-x"":0.20546875,""relative-y"":0.8236111111111111,""elapse-time"":1175.0499999616295},{""relative-x"":0.2375,""relative-y"":0.8972222222222223,""elapse-time"":1209.6349999774247},{""relative-x"":0.34765625,""relative-y"":0.8402777777777778,""elapse-time"":1238.005000166595},{""relative-x"":0.23359375,""relative-y"":0.8722222222222222,""elapse-time"":1266.4199999999255},{""relative-x"":0.2625,""relative-y"":0.8666666666666667,""elapse-time"":1295.0900001451373},{""relative-x"":0.23125,""relative-y"":0.8819444444444444,""elapse-time"":1323.9899999462068},{""relative-x"":0.32109375,""relative-y"":0.825,""elapse-time"":1358.0100000835955},{""relative-x"":0.32109375,""relative-y"":0.95,""elapse-time"":1386.1549999564886},{""relative-x"":0.26328125,""relative-y"":0.9666666666666667,""elapse-time"":1412.3200001195073},{""relative-x"":0.30625,""relative-y"":0.8486111111111111,""elapse-time"":1440.584999974817},{""relative-x"":0.28125,""relative-y"":1.025,""elapse-time"":1466.5449999738485},{""relative-x"":0.27421875,""relative-y"":0.9777777777777777,""elapse-time"":1494.0200001001358},{""relative-x"":0.23046875,""relative-y"":0.8708333333333333,""elapse-time"":1529.4950001407415},{""relative-x"":0.25390625,""relative-y"":0.8375,""elapse-time"":1558.970000129193},{""relative-x"":0.26640625,""relative-y"":0.8319444444444445,""elapse-time"":1592.769999988377},{""relative-x"":0.23125,""relative-y"":0.9111111111111111,""elapse-time"":1624.705000082031},{""relative-x"":0.23203125,""relative-y"":0.9027777777777778,""elapse-time"":1652.3550001438707},{""relative-x"":0.2015625,""relative-y"":0.8972222222222223,""elapse-time"":1686.604999937117},{""relative-x"":0.234375,""relative-y"":0.9027777777777778,""elapse-time"":1715.2100000530481},{""relative-x"":0.26328125,""relative-y"":0.7458333333333333,""elapse-time"":1746.8000000808388},{""relative-x"":0.2046875,""relative-y"":0.8763888888888889,""elapse-time"":1773.6400000285357},{""relative-x"":0.3,""relative-y"":0.7541666666666667,""elapse-time"":1811.604999937117},{""relative-x"":0.3,""relative-y"":0.8222222222222222,""elapse-time"":1839.8450000677258},{""relative-x"":0.29453125,""relative-y"":0.9166666666666666,""elapse-time"":1868.1199999991804},{""relative-x"":0.290625,""relative-y"":0.9111111111111111,""elapse-time"":1896.3399999774992},{""relative-x"":0.2921875,""relative-y"":0.9222222222222223,""elapse-time"":1924.1200000979006},{""relative-x"":0.3578125,""relative-y"":0.8375,""elapse-time"":1952.3050000425428},{""relative-x"":0.25625,""relative-y"":0.8777777777777778,""elapse-time"":1989.3950000405312},{""relative-x"":0.36015625,""relative-y"":0.6916666666666667,""elapse-time"":2016.255000140518},{""relative-x"":0.26875,""relative-y"":0.875,""elapse-time"":2046.665000030771},{""relative-x"":0.22890625,""relative-y"":0.7694444444444445,""elapse-time"":2073.050000006333},{""relative-x"":0.15078125,""relative-y"":0.825,""elapse-time"":2102.0400000270456},{""relative-x"":0.290625,""relative-y"":0.7611111111111111,""elapse-time"":2139.160000020638},{""relative-x"":0.21640625,""relative-y"":0.9333333333333333,""elapse-time"":2176.1650000698864},{""relative-x"":0.34765625,""relative-y"":0.6402777777777777,""elapse-time"":2204.2799999471754},{""relative-x"":0.28046875,""relative-y"":0.775,""elapse-time"":2232.7350000850856},{""relative-x"":0.19609375,""relative-y"":0.8083333333333333,""elapse-time"":2261.5350000560284},{""relative-x"":0.2125,""relative-y"":0.8277777777777777,""elapse-time"":2290.0549999903888},{""relative-x"":0.240625,""relative-y"":0.8819444444444444,""elapse-time"":2327.7300000190735},{""relative-x"":0.17109375,""relative-y"":0.8638888888888889,""elapse-time"":2356.385000050068},{""relative-x"":0.17734375,""relative-y"":0.7458333333333333,""elapse-time"":2383.930000010878},{""relative-x"":0.2234375,""relative-y"":0.9194444444444444,""elapse-time"":2414.009999949485},{""relative-x"":0.31171875,""relative-y"":0.7,""elapse-time"":2443.764999974519},{""relative-x"":0.24140625,""relative-y"":0.8,""elapse-time"":2475.425000069663},{""relative-x"":0.35703125,""relative-y"":0.7305555555555555,""elapse-time"":2512.825000099838},{""relative-x"":0.2578125,""relative-y"":0.8708333333333333,""elapse-time"":2540.095000062138},{""relative-x"":0.2578125,""relative-y"":0.8708333333333333,""elapse-time"":2569.230000022799},{""relative-x"":0.2578125,""relative-y"":0.8847222222222222,""elapse-time"":2599.0649999585003},{""relative-x"":0.2671875,""relative-y"":0.8138888888888889,""elapse-time"":2658.4550000261515},{""relative-x"":0.24375,""relative-y"":0.7833333333333333,""elapse-time"":2693.955000024289},{""relative-x"":0.28203125,""relative-y"":0.8263888888888888,""elapse-time"":2722.6800001226366},{""relative-x"":0.33046875,""relative-y"":0.6847222222222222,""elapse-time"":2749.945000046864},{""relative-x"":0.25703125,""relative-y"":0.7180555555555556,""elapse-time"":2783.8850000407547},{""relative-x"":0.23125,""relative-y"":0.8513888888888889,""elapse-time"":2812.0349999517202},{""relative-x"":0.21484375,""relative-y"":0.8611111111111112,""elapse-time"":2838.8499999418855},{""relative-x"":0.25390625,""relative-y"":0.8055555555555556,""elapse-time"":2866.9150001369417},{""relative-x"":0.25390625,""relative-y"":0.8055555555555556,""elapse-time"":2896.665000123903},{""relative-x"":0.20390625,""relative-y"":0.7805555555555556,""elapse-time"":2923.064999980852},{""relative-x"":0.21875,""relative-y"":0.725,""elapse-time"":2954.5700000599027},{""relative-x"":0.27578125,""relative-y"":0.8,""elapse-time"":2982.795000076294},{""relative-x"":0.22734375,""relative-y"":0.8583333333333333,""elapse-time"":3017.9050001315773},{""relative-x"":0.2234375,""relative-y"":0.7486111111111111,""elapse-time"":3045.1750000938773},{""relative-x"":0.209375,""relative-y"":0.7652777777777777,""elapse-time"":3072.954999981448},{""relative-x"":0.15859375,""relative-y"":0.8861111111111111,""elapse-time"":3102.0500001031905},{""relative-x"":0.15859375,""relative-y"":0.8861111111111111,""elapse-time"":3130.7950001209974},{""relative-x"":0.2078125,""relative-y"":0.8930555555555556,""elapse-time"":3162.650000071153},{""relative-x"":0.23203125,""relative-y"":0.8708333333333333,""elapse-time"":3190.8200001344085},{""relative-x"":0.23984375,""relative-y"":0.7083333333333334,""elapse-time"":3231.330000096932},{""relative-x"":0.2015625,""relative-y"":0.8916666666666667,""elapse-time"":3259.8399999551475},{""relative-x"":0.196875,""relative-y"":0.8819444444444444,""elapse-time"":3288.8050000183284},{""relative-x"":0.228125,""relative-y"":0.7652777777777777,""elapse-time"":3318.36499995552},{""relative-x"":0.28984375,""relative-y"":0.8555555555555555,""elapse-time"":3346.709999954328},{""relative-x"":0.1203125,""relative-y"":0.7416666666666667,""elapse-time"":3382.0400000549853},{""relative-x"":0.1265625,""relative-y"":0.8277777777777777,""elapse-time"":3410.880000097677},{""relative-x"":0.309375,""relative-y"":0.7347222222222223,""elapse-time"":3436.3550001289696},{""relative-x"":0.2875,""relative-y"":0.6930555555555555,""elapse-time"":3465.2450000867248},{""relative-x"":0.228125,""relative-y"":0.7902777777777777,""elapse-time"":3493.315000087023},{""relative-x"":0.196875,""relative-y"":0.7083333333333334,""elapse-time"":3522.6700000930578},{""relative-x"":0.2765625,""relative-y"":0.7972222222222223,""elapse-time"":3560.1800000295043},{""relative-x"":0.2328125,""relative-y"":0.7888888888888889,""elapse-time"":3588.0800001323223},{""relative-x"":0.2125,""relative-y"":0.7777777777777778,""elapse-time"":3618.080000160262},{""relative-x"":0.228125,""relative-y"":0.825,""elapse-time"":3647.1599999349564},{""relative-x"":0.24765625,""relative-y"":0.8430555555555556,""elapse-time"":3676.145000150427},{""relative-x"":0.23203125,""relative-y"":0.7652777777777777,""elapse-time"":3703.6250000819564},{""relative-x"":0.16484375,""relative-y"":0.7763888888888889,""elapse-time"":3738.1400000303984},{""relative-x"":0.16640625,""relative-y"":0.8583333333333333,""elapse-time"":3771.8100000638515},{""relative-x"":0.19375,""relative-y"":0.8569444444444444,""elapse-time"":3799.319999990985}]}","""","""","""","""","""","2021-01-13 07:33:48",,"Mozilla/5.0 (Windows NT 10.0; Win64; x64) AppleWebKit/537.36 (KHTML, like Gecko) Chrome/87.0.4280.141 Safari/537.36",WebKit,Chrome,87.0.4280.141,Windows,10.0
14,1,null,"""","""","""","""",html-keyboard-response,24,55567,0.0-12.0-2.0-0.5,698,0,1,"c922 Pro Stream Webcam (046d:085c)",9ff821d7ff24bc1d762057feede70948adeac76826a7b0a159eb2ee6d0704fc8,60,0.0006510416666666666,1536,2304,"""",null,"""","""","""","""","""","""","""","""","""","""","""","2021-01-13 07:33:48",,"Mozilla/5.0 (Windows NT 10.0; Win64; x64) AppleWebKit/537.36 (KHTML, like Gecko) Chrome/87.0.4280.141 Safari/537.36",WebKit,Chrome,87.0.4280.141,Windows,10.0
14,1,"""","""","""",1280,720,eyetracking-calibration,25,59285,0.0-12.0-2.0-1.5,698,0,1,"c922 Pro Stream Webcam (046d:085c)",9ff821d7ff24bc1d762057feede70948adeac76826a7b0a159eb2ee6d0704fc8,60,0.0006510416666666666,1536,2304,"""","""","""",0.65,0.65,0,0,"{""history"":[{""relative-x"":0.4671875,""relative-y"":0.7972222222222223,""elapse-time"":101.22000006958842},{""relative-x"":0.45390625,""relative-y"":0.5791666666666667,""elapse-time"":136.87000004574656},{""relative-x"":0.26171875,""relative-y"":0.46805555555555556,""elapse-time"":166.17500013671815},{""relative-x"":0.31796875,""relative-y"":0.6986111111111111,""elapse-time"":192.63499998487532},{""relative-x"":0.4625,""relative-y"":0.5069444444444444,""elapse-time"":220.5250000115484},{""relative-x"":0.4625,""relative-y"":0.5069444444444444,""elapse-time"":247.7200001012534},{""relative-x"":0.3921875,""relative-y"":0.4888888888888889,""elapse-time"":274.59500008262694},{""relative-x"":0.51953125,""relative-y"":0.4861111111111111,""elapse-time"":309.8699999973178},{""relative-x"":0.45078125,""relative-y"":0.6527777777777778,""elapse-time"":337.9049999639392},{""relative-x"":0.49375,""relative-y"":0.41805555555555557,""elapse-time"":371.80500011891127},{""relative-x"":0.39453125,""relative-y"":0.5444444444444444,""elapse-time"":401.310000102967},{""relative-x"":0.6765625,""relative-y"":0.7625,""elapse-time"":435.77999994158745},{""relative-x"":0.78125,""relative-y"":0.7625,""elapse-time"":463.0299999844283},{""relative-x"":0.66171875,""relative-y"":0.5291666666666667,""elapse-time"":499.46500011719763},{""relative-x"":0.6640625,""relative-y"":0.8125,""elapse-time"":527.6600001379848},{""relative-x"":0.71796875,""relative-y"":0.8430555555555556,""elapse-time"":596.2199999485165},{""relative-x"":0.62265625,""relative-y"":0.6694444444444444,""elapse-time"":642.9449999704957},{""relative-x"":0.46953125,""relative-y"":0.7972222222222223,""elapse-time"":670.7600001245737},{""relative-x"":0.7,""relative-y"":0.6416666666666667,""elapse-time"":706.6299999132752},{""relative-x"":0.771875,""relative-y"":0.7041666666666667,""elapse-time"":738.0099999718368},{""relative-x"":0.74765625,""relative-y"":0.6680555555555555,""elapse-time"":774.6000001206994},{""relative-x"":0.64375,""relative-y"":0.6319444444444444,""elapse-time"":803.3050000667572},{""relative-x"":0.609375,""relative-y"":0.7763888888888889,""elapse-time"":841.7150001041591},{""relative-x"":0.590625,""relative-y"":0.5555555555555556,""elapse-time"":871.5949999168515},{""relative-x"":0.57109375,""relative-y"":0.6527777777777778,""elapse-time"":900.4949999507517},{""relative-x"":0.5796875,""relative-y"":0.6361111111111111,""elapse-time"":932.5650001410395},{""relative-x"":0.7140625,""relative-y"":0.7388888888888889,""elapse-time"":967.0250001363456},{""relative-x"":0.62421875,""relative-y"":0.8208333333333333,""elapse-time"":995.5100000370294},{""relative-x"":0.615625,""relative-y"":0.7013888888888888,""elapse-time"":1023.5000001266599},{""relative-x"":0.61640625,""relative-y"":0.7444444444444445,""elapse-time"":1053.5049999598414},{""relative-x"":0.6796875,""relative-y"":0.7805555555555556,""elapse-time"":1081.9600000977516},{""relative-x"":0.596875,""relative-y"":0.7236111111111111,""elapse-time"":1120.6799999345094},{""relative-x"":0.6578125,""relative-y"":0.6402777777777777,""elapse-time"":1154.7700001392514},{""relative-x"":0.6859375,""relative-y"":0.7013888888888888,""elapse-time"":1183.5950000677258},{""relative-x"":0.68125,""relative-y"":0.8430555555555556,""elapse-time"":1212.5999999698251},{""relative-x"":0.640625,""relative-y"":0.6805555555555556,""elapse-time"":1250.3800000995398},{""relative-x"":0.57109375,""relative-y"":0.7222222222222222,""elapse-time"":1279.7149999532849},{""relative-x"":0.7859375,""relative-y"":0.5277777777777778,""elapse-time"":1324.6150000486523},{""relative-x"":0.7859375,""relative-y"":0.5277777777777778,""elapse-time"":1355.6300001218915},{""relative-x"":0.64765625,""relative-y"":0.6027777777777777,""elapse-time"":1391.5750000160187},{""relative-x"":0.6328125,""relative-y"":0.7527777777777778,""elapse-time"":1424.6400000993162},{""relative-x"":0.62265625,""relative-y"":0.6805555555555556,""elapse-time"":1454.2799999471754},{""relative-x"":0.6953125,""relative-y"":0.7236111111111111,""elapse-time"":1483.3599999547005},{""relative-x"":0.62265625,""relative-y"":0.7513888888888889,""elapse-time"":1520.120000001043},{""relative-x"":0.603125,""relative-y"":0.9069444444444444,""elapse-time"":1549.475000007078},{""relative-x"":0.5796875,""relative-y"":0.8458333333333333,""elapse-time"":1577.7050000615418},{""relative-x"":0.6515625,""relative-y"":0.7819444444444444,""elapse-time"":1610.490000108257},{""relative-x"":0.59296875,""relative-y"":0.8611111111111112,""elapse-time"":1641.560000134632},{""relative-x"":0.81875,""relative-y"":0.6902777777777778,""elapse-time"":1680.835000006482},{""relative-x"":0.76015625,""relative-y"":0.6694444444444444,""elapse-time"":1709.01000010781},{""relative-x"":0.83671875,""relative-y"":0.6652777777777777,""elapse-time"":1737.6300001051277},{""relative-x"":0.603125,""relative-y"":0.9611111111111111,""elapse-time"":1767.3599999397993},{""relative-x"":0.70078125,""relative-y"":0.7013888888888888,""elapse-time"":1798.729999922216},{""relative-x"":0.61640625,""relative-y"":0.9583333333333334,""elapse-time"":1829.440000001341},{""relative-x"":0.69765625,""relative-y"":0.6902777777777778,""elapse-time"":1868.2550000958145},{""relative-x"":0.69765625,""relative-y"":0.675,""elapse-time"":1898.3450001105666},{""relative-x"":0.76328125,""relative-y"":0.6083333333333333,""elapse-time"":1929.8900000285357},{""relative-x"":0.65234375,""relative-y"":0.7,""elapse-time"":1960.6149999890476},{""relative-x"":0.67734375,""relative-y"":0.7652777777777777,""elapse-time"":1989.1250000800937},{""relative-x"":0.665625,""relative-y"":0.8041666666666667,""elapse-time"":2018.3800000231713},{""relative-x"":0.66875,""relative-y"":0.7416666666666667,""elapse-time"":2055.085000116378},{""relative-x"":0.69609375,""relative-y"":0.7777777777777778,""elapse-time"":2082.5400000903755},{""relative-x"":0.7328125,""relative-y"":0.7819444444444444,""elapse-time"":2112.154999980703},{""relative-x"":0.65859375,""relative-y"":0.675,""elapse-time"":2140.6499999575317},{""relative-x"":0.65078125,""relative-y"":0.8069444444444445,""elapse-time"":2170.365000143647},{""relative-x"":0.6359375,""relative-y"":0.6708333333333333,""elapse-time"":2199.974999995902},{""relative-x"":0.64765625,""relative-y"":0.7444444444444445,""elapse-time"":2236.070000100881},{""relative-x"":0.64140625,""relative-y"":0.6486111111111111,""elapse-time"":2265.045000007376},{""relative-x"":0.80703125,""relative-y"":0.8416666666666667,""elapse-time"":2295.9950000513345},{""relative-x"":0.8078125,""relative-y"":0.8708333333333333,""elapse-time"":2324.3150000926107},{""relative-x"":0.8640625,""relative-y"":0.8,""elapse-time"":2376.9700000993907},{""relative-x"":0.92578125,""relative-y"":0.7430555555555556,""elapse-time"":2413.854999933392},{""relative-x"":0.86484375,""relative-y"":0.8069444444444445,""elapse-time"":2441.0600000992417},{""relative-x"":0.85703125,""relative-y"":0.7430555555555556,""elapse-time"":2469.255000120029},{""relative-x"":0.81875,""relative-y"":0.9180555555555555,""elapse-time"":2496.9200000632554},{""relative-x"":0.6921875,""relative-y"":0.7291666666666666,""elapse-time"":2531.7250001244247},{""relative-x"":0.684375,""relative-y"":0.5805555555555556,""elapse-time"":2559.7999999299645},{""relative-x"":0.7125,""relative-y"":0.6708333333333333,""elapse-time"":2588.200000114739},{""relative-x"":0.65390625,""relative-y"":0.7819444444444444,""elapse-time"":2617.450000019744},{""relative-x"":0.65859375,""relative-y"":0.6777777777777778,""elapse-time"":2647.2700000740588},{""relative-x"":0.7046875,""relative-y"":0.5361111111111111,""elapse-time"":2684.349999995902},{""relative-x"":0.6453125,""relative-y"":0.6527777777777778,""elapse-time"":2713.424999965355},{""relative-x"":0.59375,""relative-y"":0.7055555555555556,""elapse-time"":2740.995000116527},{""relative-x"":0.753125,""relative-y"":0.5097222222222222,""elapse-time"":2768.7999999616295},{""relative-x"":0.75859375,""relative-y"":0.6930555555555555,""elapse-time"":2799.980000127107},{""relative-x"":0.62109375,""relative-y"":0.5527777777777778,""elapse-time"":2829.0000001434237},{""relative-x"":0.70078125,""relative-y"":0.6194444444444445,""elapse-time"":2865.830000024289},{""relative-x"":0.63125,""relative-y"":0.7027777777777777,""elapse-time"":2894.8949999175966},{""relative-x"":0.646875,""relative-y"":0.6944444444444444,""elapse-time"":2922.084999969229},{""relative-x"":0.5859375,""relative-y"":0.7638888888888888,""elapse-time"":2951.335000107065},{""relative-x"":0.65625,""relative-y"":0.75,""elapse-time"":2979.5999999623746},{""relative-x"":0.61875,""relative-y"":0.7791666666666667,""elapse-time"":3007.190000033006},{""relative-x"":0.7953125,""relative-y"":0.5875,""elapse-time"":3036.474999971688},{""relative-x"":0.65234375,""relative-y"":0.6583333333333333,""elapse-time"":3074.470000108704},{""relative-x"":0.69375,""relative-y"":0.7652777777777777,""elapse-time"":3101.8850000109524},{""relative-x"":0.5546875,""relative-y"":0.9625,""elapse-time"":3132.32500012964},{""relative-x"":0.6515625,""relative-y"":0.7555555555555555,""elapse-time"":3160.7200000435114},{""relative-x"":0.675,""relative-y"":0.7583333333333333,""elapse-time"":3189.0950000379235},{""relative-x"":0.60546875,""relative-y"":0.7277777777777777,""elapse-time"":3218.3100001420826},{""relative-x"":0.6546875,""relative-y"":0.7666666666666667,""elapse-time"":3248.5800001304597},{""relative-x"":0.5953125,""relative-y"":0.5527777777777778,""elapse-time"":3283.880000002682},{""relative-x"":0.62421875,""relative-y"":0.9069444444444444,""elapse-time"":3313.235000008717},{""relative-x"":0.5546875,""relative-y"":0.6555555555555556,""elapse-time"":3341.810000129044},{""relative-x"":0.58515625,""relative-y"":0.7625,""elapse-time"":3372.2950001247227},{""relative-x"":0.68046875,""relative-y"":0.6736111111111112,""elapse-time"":3402.4750001262873},{""relative-x"":0.65625,""relative-y"":0.5847222222222223,""elapse-time"":3432.6949999667704},{""relative-x"":0.61796875,""relative-y"":0.7513888888888889,""elapse-time"":3470.1000000350177},{""relative-x"":0.71328125,""relative-y"":0.6041666666666666,""elapse-time"":3498.0800000485033},{""relative-x"":0.80234375,""relative-y"":0.6277777777777778,""elapse-time"":3525.840000016615},{""relative-x"":0.753125,""relative-y"":0.8694444444444445,""elapse-time"":3555.225000018254},{""relative-x"":0.7828125,""relative-y"":0.7625,""elapse-time"":3584.7950000315905},{""relative-x"":0.58828125,""relative-y"":0.6388888888888888,""elapse-time"":3621.070000110194},{""relative-x"":0.5953125,""relative-y"":0.7263888888888889,""elapse-time"":3650.605000089854},{""relative-x"":0.53046875,""relative-y"":0.625,""elapse-time"":3679.0899999905378},{""relative-x"":0.68203125,""relative-y"":0.5680555555555555,""elapse-time"":3708.7550000287592}]}","""","""","""","""","""","2021-01-13 07:33:48",,"Mozilla/5.0 (Windows NT 10.0; Win64; x64) AppleWebKit/537.36 (KHTML, like Gecko) Chrome/87.0.4280.141 Safari/537.36",WebKit,Chrome,87.0.4280.141,Windows,10.0
14,1,null,"""","""","""","""",html-keyboard-response,26,60802,0.0-12.0-2.0-0.6,698,0,1,"c922 Pro Stream Webcam (046d:085c)",9ff821d7ff24bc1d762057feede70948adeac76826a7b0a159eb2ee6d0704fc8,60,0.0006510416666666666,1536,2304,"""",null,"""","""","""","""","""","""","""","""","""","""","""","2021-01-13 07:33:48",,"Mozilla/5.0 (Windows NT 10.0; Win64; x64) AppleWebKit/537.36 (KHTML, like Gecko) Chrome/87.0.4280.141 Safari/537.36",WebKit,Chrome,87.0.4280.141,Windows,10.0
14,1,"""","""","""",1280,720,eyetracking-calibration,27,64957,0.0-12.0-2.0-1.6,698,0,1,"c922 Pro Stream Webcam (046d:085c)",9ff821d7ff24bc1d762057feede70948adeac76826a7b0a159eb2ee6d0704fc8,60,0.0006510416666666666,1536,2304,"""","""","""",0.8,0.2,0,0,"{""history"":[{""relative-x"":0.278125,""relative-y"":0.49166666666666664,""elapse-time"":100.34000012092292},{""relative-x"":0.40703125,""relative-y"":0.5236111111111111,""elapse-time"":126.92000018432736},{""relative-x"":0.428125,""relative-y"":0.37083333333333335,""elapse-time"":156.2900000717491},{""relative-x"":0.47578125,""relative-y"":0.49722222222222223,""elapse-time"":184.8350001964718},{""relative-x"":0.390625,""relative-y"":0.44583333333333336,""elapse-time"":212.04999997280538},{""relative-x"":0.5453125,""relative-y"":0.5819444444444445,""elapse-time"":244.2950000986457},{""relative-x"":0.421875,""relative-y"":0.5,""elapse-time"":279.92000011727214},{""relative-x"":0.45546875,""relative-y"":0.36527777777777776,""elapse-time"":311.3900001626462},{""relative-x"":0.75625,""relative-y"":0.2652777777777778,""elapse-time"":347.53500018268824},{""relative-x"":0.684375,""relative-y"":0.075,""elapse-time"":402.7150000911206},{""relative-x"":0.66640625,""relative-y"":0.3277777777777778,""elapse-time"":445.8650001324713},{""relative-x"":0.80390625,""relative-y"":0.1486111111111111,""elapse-time"":477.7850001119077},{""relative-x"":0.95703125,""relative-y"":0.19166666666666668,""elapse-time"":512.7150001935661},{""relative-x"":0.94453125,""relative-y"":0.2513888888888889,""elapse-time"":542.8700000047684},{""relative-x"":0.84453125,""relative-y"":0.10277777777777777,""elapse-time"":571.7900001909584},{""relative-x"":0.74765625,""relative-y"":0.12916666666666668,""elapse-time"":601.52000002563},{""relative-x"":0.69375,""relative-y"":0.15,""elapse-time"":637.5700000207871},{""relative-x"":0.90234375,""relative-y"":0.23055555555555557,""elapse-time"":668.2500001043081},{""relative-x"":0.88125,""relative-y"":0.11944444444444445,""elapse-time"":704.3000000994653},{""relative-x"":0.96953125,""relative-y"":0.28055555555555556,""elapse-time"":732.8200000338256},{""relative-x"":0.93203125,""relative-y"":-0.005555555555555556,""elapse-time"":769.5000001695007},{""relative-x"":0.6453125,""relative-y"":0.24305555555555555,""elapse-time"":797.4650000687689},{""relative-x"":0.7796875,""relative-y"":0.42916666666666664,""elapse-time"":834.3700000550598},{""relative-x"":0.74296875,""relative-y"":0.2847222222222222,""elapse-time"":865.5700001399964},{""relative-x"":0.81796875,""relative-y"":0.13333333333333333,""elapse-time"":903.7450000178069},{""relative-x"":0.7625,""relative-y"":0.20277777777777778,""elapse-time"":936.5000000689179},{""relative-x"":0.7875,""relative-y"":0.03194444444444444,""elapse-time"":981.2150001525879},{""relative-x"":0.8234375,""relative-y"":0.058333333333333334,""elapse-time"":1011.655000038445},{""relative-x"":0.8484375,""relative-y"":0.4,""elapse-time"":1049.2850001901388},{""relative-x"":0.78828125,""relative-y"":0.24305555555555555,""elapse-time"":1081.8750001490116},{""relative-x"":0.8890625,""relative-y"":0.18888888888888888,""elapse-time"":1118.6699999962002},{""relative-x"":0.8546875,""relative-y"":0.19444444444444445,""elapse-time"":1151.4700001571327},{""relative-x"":1.00859375,""relative-y"":0.24583333333333332,""elapse-time"":1196.910000173375},{""relative-x"":0.9390625,""relative-y"":0.4388888888888889,""elapse-time"":1228.465000167489},{""relative-x"":0.921875,""relative-y"":0.4375,""elapse-time"":1270.3400000464171},{""relative-x"":0.96640625,""relative-y"":0.34444444444444444,""elapse-time"":1302.275000140071},{""relative-x"":0.74453125,""relative-y"":0.07083333333333333,""elapse-time"":1350.2100000623614},{""relative-x"":0.7125,""relative-y"":0.40555555555555556,""elapse-time"":1381.800000090152},{""relative-x"":0.70234375,""relative-y"":0.31666666666666665,""elapse-time"":1418.0050001014024},{""relative-x"":0.7234375,""relative-y"":0.28888888888888886,""elapse-time"":1452.7800001669675},{""relative-x"":0.84609375,""relative-y"":0.4875,""elapse-time"":1493.1100001558661},{""relative-x"":0.8140625,""relative-y"":0.11388888888888889,""elapse-time"":1527.1250000223517},{""relative-x"":0.8,""relative-y"":0.2222222222222222,""elapse-time"":1575.7500000763685},{""relative-x"":0.7453125,""relative-y"":0.3625,""elapse-time"":1611.1300000920892},{""relative-x"":0.8125,""relative-y"":0.030555555555555555,""elapse-time"":1648.6400000285357},{""relative-x"":0.86953125,""relative-y"":-0.11805555555555555,""elapse-time"":1683.4200001321733},{""relative-x"":0.84375,""relative-y"":0.38333333333333336,""elapse-time"":1731.1750000808388},{""relative-x"":0.87734375,""relative-y"":0.4388888888888889,""elapse-time"":1760.5350001249462},{""relative-x"":0.859375,""relative-y"":0.2875,""elapse-time"":1792.335000121966},{""relative-x"":0.83359375,""relative-y"":0.3388888888888889,""elapse-time"":1824.8450001701713},{""relative-x"":0.89609375,""relative-y"":0.1625,""elapse-time"":1853.120000101626},{""relative-x"":0.88125,""relative-y"":0.08611111111111111,""elapse-time"":1883.9200001675636},{""relative-x"":0.8984375,""relative-y"":0.4083333333333333,""elapse-time"":1920.3550000675023},{""relative-x"":0.8984375,""relative-y"":0.4083333333333333,""elapse-time"":1949.5350001379848},{""relative-x"":0.9125,""relative-y"":0.31666666666666665,""elapse-time"":1979.2450000531971},{""relative-x"":0.83515625,""relative-y"":0.11666666666666667,""elapse-time"":2012.8500000573695},{""relative-x"":0.984375,""relative-y"":0.28888888888888886,""elapse-time"":2046.1450000293553},{""relative-x"":0.89609375,""relative-y"":0.2111111111111111,""elapse-time"":2078.870000084862},{""relative-x"":0.85625,""relative-y"":0.2,""elapse-time"":2117.7199999801815},{""relative-x"":0.8765625,""relative-y"":0.2847222222222222,""elapse-time"":2153.1899999827147},{""relative-x"":0.8203125,""relative-y"":0.4027777777777778,""elapse-time"":2183.6300001014024},{""relative-x"":0.94921875,""relative-y"":0.2722222222222222,""elapse-time"":2214.0350001864135},{""relative-x"":0.77421875,""relative-y"":0.10277777777777777,""elapse-time"":2268.095000181347},{""relative-x"":0.8796875,""relative-y"":0.22083333333333333,""elapse-time"":2315.7900001388043},{""relative-x"":0.784375,""relative-y"":0.15138888888888888,""elapse-time"":2344.054999994114},{""relative-x"":0.8390625,""relative-y"":0.4305555555555556,""elapse-time"":2375.4350000526756},{""relative-x"":0.88359375,""relative-y"":0.3819444444444444,""elapse-time"":2406.7900001537055},{""relative-x"":0.809375,""relative-y"":0.2263888888888889,""elapse-time"":2434.000000124797},{""relative-x"":0.8359375,""relative-y"":0.19722222222222222,""elapse-time"":2464.2300000414252},{""relative-x"":0.790625,""relative-y"":0.05694444444444444,""elapse-time"":2501.5950000379235},{""relative-x"":0.91640625,""relative-y"":0.275,""elapse-time"":2537.925000069663},{""relative-x"":0.75,""relative-y"":0.15833333333333333,""elapse-time"":2570.0300000607967},{""relative-x"":0.79140625,""relative-y"":0.24583333333333332,""elapse-time"":2600.075000198558},{""relative-x"":0.91796875,""relative-y"":0.13194444444444445,""elapse-time"":2641.0300000570714},{""relative-x"":0.85,""relative-y"":0.19027777777777777,""elapse-time"":2672.475000144914},{""relative-x"":0.99765625,""relative-y"":0.2986111111111111,""elapse-time"":2717.03499997966},{""relative-x"":0.9609375,""relative-y"":0.21666666666666667,""elapse-time"":2746.04000011459},{""relative-x"":0.7421875,""relative-y"":0.34305555555555556,""elapse-time"":2775.5150001030415},{""relative-x"":0.96796875,""relative-y"":0.3111111111111111,""elapse-time"":2816.7250000406057},{""relative-x"":0.85078125,""relative-y"":0.23194444444444445,""elapse-time"":2847.5999999791384},{""relative-x"":0.84921875,""relative-y"":0.2861111111111111,""elapse-time"":2878.7850001826882},{""relative-x"":0.9390625,""relative-y"":0.08333333333333333,""elapse-time"":2916.8850001879036},{""relative-x"":1.01875,""relative-y"":0.15138888888888888,""elapse-time"":2945.3600000124425},{""relative-x"":0.96015625,""relative-y"":0.3625,""elapse-time"":2973.7650000024587},{""relative-x"":0.97890625,""relative-y"":0.125,""elapse-time"":3006.5700002014637},{""relative-x"":0.81328125,""relative-y"":0.25555555555555554,""elapse-time"":3036.2450000829995},{""relative-x"":0.9421875,""relative-y"":0.23194444444444445,""elapse-time"":3065.6400001607835},{""relative-x"":0.778125,""relative-y"":0.29583333333333334,""elapse-time"":3097.065000096336},{""relative-x"":0.8921875,""relative-y"":0.17777777777777778,""elapse-time"":3134.7000000532717},{""relative-x"":0.9078125,""relative-y"":0.029166666666666667,""elapse-time"":3163.4150000754744},{""relative-x"":0.9078125,""relative-y"":0.029166666666666667,""elapse-time"":3193.0850001517683},{""relative-x"":0.8359375,""relative-y"":0.10277777777777777,""elapse-time"":3224.4949999731034},{""relative-x"":0.9921875,""relative-y"":0.2902777777777778,""elapse-time"":3254.6600000932813},{""relative-x"":0.7859375,""relative-y"":0.20833333333333334,""elapse-time"":3287.910000188276},{""relative-x"":0.73828125,""relative-y"":0.175,""elapse-time"":3325.3800000529736},{""relative-x"":0.821875,""relative-y"":0.2708333333333333,""elapse-time"":3353.5050000064075},{""relative-x"":0.803125,""relative-y"":0.11388888888888889,""elapse-time"":3385.7550001703203},{""relative-x"":0.93515625,""relative-y"":0.2125,""elapse-time"":3416.315000038594},{""relative-x"":0.82890625,""relative-y"":0.4222222222222222,""elapse-time"":3448.1699999887496},{""relative-x"":0.78125,""relative-y"":0.3680555555555556,""elapse-time"":3480.8800001628697},{""relative-x"":0.85,""relative-y"":0.08611111111111111,""elapse-time"":3517.3750000540167},{""relative-x"":0.8484375,""relative-y"":0.09583333333333334,""elapse-time"":3546.4800000190735},{""relative-x"":0.77265625,""relative-y"":0.16527777777777777,""elapse-time"":3576.564999995753},{""relative-x"":0.8890625,""relative-y"":0.2222222222222222,""elapse-time"":3608.460000017658},{""relative-x"":0.9390625,""relative-y"":0.1763888888888889,""elapse-time"":3638.2400000002235},{""relative-x"":0.70546875,""relative-y"":0.2111111111111111,""elapse-time"":3680.4100000299513},{""relative-x"":0.8171875,""relative-y"":0.32916666666666666,""elapse-time"":3708.830000134185},{""relative-x"":0.92265625,""relative-y"":0.15833333333333333,""elapse-time"":3736.28000007011},{""relative-x"":0.75390625,""relative-y"":0.1,""elapse-time"":3767.900000093505},{""relative-x"":0.93984375,""relative-y"":0.15138888888888888,""elapse-time"":3798.86500001885},{""relative-x"":0.82890625,""relative-y"":0.16805555555555557,""elapse-time"":3827.8550000395626},{""relative-x"":0.896875,""relative-y"":0.2611111111111111,""elapse-time"":3867.5200000870973},{""relative-x"":0.8296875,""relative-y"":0.17083333333333334,""elapse-time"":3897.7550000417978},{""relative-x"":0.84609375,""relative-y"":0.19583333333333333,""elapse-time"":3927.3149999789894},{""relative-x"":0.8484375,""relative-y"":0.16666666666666666,""elapse-time"":3958.400000119582},{""relative-x"":0.821875,""relative-y"":0.25972222222222224,""elapse-time"":3989.2349999863654},{""relative-x"":1.05,""relative-y"":0.29444444444444445,""elapse-time"":4021.2950001005083},{""relative-x"":0.9921875,""relative-y"":0.17777777777777778,""elapse-time"":4059.800000162795},{""relative-x"":0.896875,""relative-y"":0.16527777777777777,""elapse-time"":4113.860000157729},{""relative-x"":0.9328125,""relative-y"":0.4375,""elapse-time"":4150.95500019379}]}","""","""","""","""","""","2021-01-13 07:33:48",,"Mozilla/5.0 (Windows NT 10.0; Win64; x64) AppleWebKit/537.36 (KHTML, like Gecko) Chrome/87.0.4280.141 Safari/537.36",WebKit,Chrome,87.0.4280.141,Windows,10.0
14,1,null,"""","""","""","""",html-keyboard-response,28,66471,0.0-12.0-2.0-0.7,698,0,1,"c922 Pro Stream Webcam (046d:085c)",9ff821d7ff24bc1d762057feede70948adeac76826a7b0a159eb2ee6d0704fc8,60,0.0006510416666666666,1536,2304,"""",null,"""","""","""","""","""","""","""","""","""","""","""","2021-01-13 07:33:48",,"Mozilla/5.0 (Windows NT 10.0; Win64; x64) AppleWebKit/537.36 (KHTML, like Gecko) Chrome/87.0.4280.141 Safari/537.36",WebKit,Chrome,87.0.4280.141,Windows,10.0
