run_id,condition,rt,stimulus,button_pressed,window_width,window_height,trial_type,trial_index,time_elapsed,internal_node_id,subject,chinFirst,choiceTask_amountLeftFirst,webcam_label,webcam_fps,webcam_aspectRatio,webcam_height,webcam_width,responses,key_press,success,x_pos,y_pos,chin,task_nr,eyeData,recorded_at,ip,user_agent,device,browser,browser_version,platform,platform_version
18,1,1325.0699999989592,"<div style=""position: fixed; display: inline-block; top: 20%; right: 20%; text-align: right;""><img src=""fu_logo.PNG"" alt=""[FU Berlin Logo]"" style=""width: 25%;""></div><div><br><br><p><strong>Welcome, dear participant! </strong></p><p>Thank you for your interest in and your support for our research.<br> This study is run by researchers at Freie Universität Berlin. </p></div>",0,1280,626,html-button-response,0,1351,0.0-0.0,297,0,0,"Integrierte iSight-Kamera (05ac:8507)",30.000030517578125,0.0020833333333333333,480,640,"""","""","""","""","""","""","""","""","2021-01-14 11:21:39",,"Mozilla/5.0 (Macintosh; Intel Mac OS X 10_13_6) AppleWebKit/537.36 (KHTML, like Gecko) Chrome/87.0.4280.141 Safari/537.36",Macintosh,Chrome,87.0.4280.141,"OS X",10_13_6
18,1,10429.879999996047,"""","""","""","""",survey-html-form,1,11784,0.0-1.0,297,0,0,"Integrierte iSight-Kamera (05ac:8507)",30.000030517578125,0.0020833333333333333,480,640,"{""prolificID"":""L987light""}","""","""","""","""","""","""","""","2021-01-14 11:21:39",,"Mozilla/5.0 (Macintosh; Intel Mac OS X 10_13_6) AppleWebKit/537.36 (KHTML, like Gecko) Chrome/87.0.4280.141 Safari/537.36",Macintosh,Chrome,87.0.4280.141,"OS X",10_13_6
18,1,1429.629999998724,"<p>Please, use only <strong>one monitor</strong> for this study.<br>If necessary, switch off the other monitors.</p>",0,"""","""",html-button-response,2,13216,0.0-2.0,297,0,0,"Integrierte iSight-Kamera (05ac:8507)",30.000030517578125,0.0020833333333333333,480,640,"""","""","""","""","""","""","""","""","2021-01-14 11:21:39",,"Mozilla/5.0 (Macintosh; Intel Mac OS X 10_13_6) AppleWebKit/537.36 (KHTML, like Gecko) Chrome/87.0.4280.141 Safari/537.36",Macintosh,Chrome,87.0.4280.141,"OS X",10_13_6
18,1,604.8049999953946,"<p><strong>Please turn your mobile phone into Airplane Mode and close all CPU- or data-intensive programs and websites!</strong><br> (e.g. running Youtube Videos or Torrents)</p>",0,"""","""",html-button-response,3,13824,0.0-3.0,297,0,0,"Integrierte iSight-Kamera (05ac:8507)",30.000030517578125,0.0020833333333333333,480,640,"""","""","""","""","""","""","""","""","2021-01-14 11:21:39",,"Mozilla/5.0 (Macintosh; Intel Mac OS X 10_13_6) AppleWebKit/537.36 (KHTML, like Gecko) Chrome/87.0.4280.141 Safari/537.36",Macintosh,Chrome,87.0.4280.141,"OS X",10_13_6
18,1,null,"""","""","""","""",html-keyboard-response,4,14093,0.0-4.0,297,0,0,"Integrierte iSight-Kamera (05ac:8507)",30.000030517578125,0.0020833333333333333,480,640,"""",null,"""","""","""","""","""","""","2021-01-14 11:21:39",,"Mozilla/5.0 (Macintosh; Intel Mac OS X 10_13_6) AppleWebKit/537.36 (KHTML, like Gecko) Chrome/87.0.4280.141 Safari/537.36",Macintosh,Chrome,87.0.4280.141,"OS X",10_13_6
18,1,null,"""","""","""","""",html-keyboard-response,5,14196,0.0-5.0,297,0,0,"Integrierte iSight-Kamera (05ac:8507)",30.000030517578125,0.0020833333333333333,480,640,"""",null,"""","""","""","""","""","""","2021-01-14 11:21:39",,"Mozilla/5.0 (Macintosh; Intel Mac OS X 10_13_6) AppleWebKit/537.36 (KHTML, like Gecko) Chrome/87.0.4280.141 Safari/537.36",Macintosh,Chrome,87.0.4280.141,"OS X",10_13_6
18,1,5899.600000004284,"<div style=""width: 45%; text-align: left; margin: auto;""><p><strong>For a preliminary adjustment, please consider the following instructions: </strong></p><ol><li>Sit at a table and make sure that you could later rest your elbows on it. </li><li>Sit towards a window or lamp so that there are no shadows on your face. You might additionally turn on a desk lamp for that. </li></ol></div><img src=""lightInstruct.PNG"" alt=""[Eye-Tracking-Instructions]"" style=""width: 70%;"">",0,"""","""",html-button-response,6,20097,0.0-6.0,297,0,0,"Integrierte iSight-Kamera (05ac:8507)",30.000030517578125,0.0020833333333333333,480,640,"""","""","""","""","""","""","""","""","2021-01-14 11:21:39",,"Mozilla/5.0 (Macintosh; Intel Mac OS X 10_13_6) AppleWebKit/537.36 (KHTML, like Gecko) Chrome/87.0.4280.141 Safari/537.36",Macintosh,Chrome,87.0.4280.141,"OS X",10_13_6
18,1,1190.2699999991455,"<div style=""width: 45%; text-align: left; margin: auto;""><ol start='3'><li>Check the video and stay in the highlighted rectangle so that it becomes green. </li><li>Try as much as possible to follow the instructions on these pictures and avoid moving your head. If you move too much, the calibration can fail and you might not be able to finish the study. </li><li><strong>If necessary, adjust your laptop, monitor, webcam, or chair. </strong></li></ol></div><img src=""ETInstructions.PNG"" alt=""[Eye-Tracking-Instructions]"" style=""width: 70%;"">",0,"""","""",html-button-response,7,21291,0.0-7.0,297,0,0,"Integrierte iSight-Kamera (05ac:8507)",30.000030517578125,0.0020833333333333333,480,640,"""","""","""","""","""","""","""","""","2021-01-14 11:21:39",,"Mozilla/5.0 (Macintosh; Intel Mac OS X 10_13_6) AppleWebKit/537.36 (KHTML, like Gecko) Chrome/87.0.4280.141 Safari/537.36",Macintosh,Chrome,87.0.4280.141,"OS X",10_13_6
18,1,"""","""","""",1280,626,fullscreen,8,24664,0.0-8.0,297,0,0,"Integrierte iSight-Kamera (05ac:8507)",30.000030517578125,0.0020833333333333333,480,640,"""","""",true,"""","""","""","""","""","2021-01-14 11:21:39",,"Mozilla/5.0 (Macintosh; Intel Mac OS X 10_13_6) AppleWebKit/537.36 (KHTML, like Gecko) Chrome/87.0.4280.141 Safari/537.36",Macintosh,Chrome,87.0.4280.141,"OS X",10_13_6
18,1,869.7150000007241,"<div style=""width: 45%; margin: auto; text-align: justify;""><p>For the next task, please do <strong>not</strong> rest your head on your arm but keep your head in a natural position. Get sure that you stay in the rectangle in the video stream while doing that. </p><p>However, in order to make this measurement as accurate as possible, please keep your head at the same position at all time so that you <strong>only move your eyes</strong> when you look at the screen. </p></div><p style=""text-align: center;"">Press Space to continue </p>","""","""","""",html-keyboard-response,9,25537,0.0-9.0,297,0,0,"Integrierte iSight-Kamera (05ac:8507)",30.000030517578125,0.0020833333333333333,480,640,"""",32,"""","""","""","""","""","""","2021-01-14 11:21:39",,"Mozilla/5.0 (Macintosh; Intel Mac OS X 10_13_6) AppleWebKit/537.36 (KHTML, like Gecko) Chrome/87.0.4280.141 Safari/537.36",Macintosh,Chrome,87.0.4280.141,"OS X",10_13_6
18,1,444.55500000185566,"<p><strong>Can you stay in that pose for a while?</strong></p><p>If not, then please adjust now in order to be comfortable.</p><br><p>Press Space to continue</p>","""","""","""",html-keyboard-response,10,25983,0.0-10.0,297,0,0,"Integrierte iSight-Kamera (05ac:8507)",30.000030517578125,0.0020833333333333333,480,640,"""",32,"""","""","""","""","""","""","2021-01-14 11:21:39",,"Mozilla/5.0 (Macintosh; Intel Mac OS X 10_13_6) AppleWebKit/537.36 (KHTML, like Gecko) Chrome/87.0.4280.141 Safari/537.36",Macintosh,Chrome,87.0.4280.141,"OS X",10_13_6
18,1,470.26000000187196,"<div style=""position: fixed; top: 30%; left: 27.5%; width: 45%; margin: auto; text-align: justify;""><p>For calibration purposes, there will be buttons (39 in total) appearing one after another. <strong>Click 14x on each button</strong> until it turns green. Then the next button will appear. This will take around <strong>3 minutes. </strong></p><p>For an accurate measurement, please <strong><u>always</u></strong> follow the mouse cursor with your eyes. </p><br><p style=""text-align: center;"">Press Space to continue</p></div>","""","""","""",html-keyboard-response,11,26454,0.0-11.0,297,0,0,"Integrierte iSight-Kamera (05ac:8507)",30.000030517578125,0.0020833333333333333,480,640,"""",32,"""","""","""","""","""","""","2021-01-14 11:21:39",,"Mozilla/5.0 (Macintosh; Intel Mac OS X 10_13_6) AppleWebKit/537.36 (KHTML, like Gecko) Chrome/87.0.4280.141 Safari/537.36",Macintosh,Chrome,87.0.4280.141,"OS X",10_13_6
18,1,null,"""","""","""","""",html-keyboard-response,12,26560,0.0-12.0-0.0,297,0,0,"Integrierte iSight-Kamera (05ac:8507)",30.000030517578125,0.0020833333333333333,480,640,"""",null,"""","""","""","""","""","""","2021-01-14 11:21:39",,"Mozilla/5.0 (Macintosh; Intel Mac OS X 10_13_6) AppleWebKit/537.36 (KHTML, like Gecko) Chrome/87.0.4280.141 Safari/537.36",Macintosh,Chrome,87.0.4280.141,"OS X",10_13_6
18,1,null,"""","""","""","""",html-keyboard-response,13,26664,0.0-12.0-1.0,297,0,0,"Integrierte iSight-Kamera (05ac:8507)",30.000030517578125,0.0020833333333333333,480,640,"""",null,"""","""","""","""","""","""","2021-01-14 11:21:39",,"Mozilla/5.0 (Macintosh; Intel Mac OS X 10_13_6) AppleWebKit/537.36 (KHTML, like Gecko) Chrome/87.0.4280.141 Safari/537.36",Macintosh,Chrome,87.0.4280.141,"OS X",10_13_6
18,1,null,"""","""","""","""",html-keyboard-response,14,28166,0.0-12.0-2.0-0.0,297,0,0,"Integrierte iSight-Kamera (05ac:8507)",30.000030517578125,0.0020833333333333333,480,640,"""",null,"""","""","""","""","""","""","2021-01-14 11:21:39",,"Mozilla/5.0 (Macintosh; Intel Mac OS X 10_13_6) AppleWebKit/537.36 (KHTML, like Gecko) Chrome/87.0.4280.141 Safari/537.36",Macintosh,Chrome,87.0.4280.141,"OS X",10_13_6
18,1,"""","""","""",1280,800,eyetracking-calibration,15,33844,0.0-12.0-2.0-1.0,297,0,0,"Integrierte iSight-Kamera (05ac:8507)",30.000030517578125,0.0020833333333333333,480,640,"""","""","""",0.2,0.2,0,0,"{""history"":[{""relative-x"":0.22734375,""relative-y"":0.2025,""elapse-time"":1706.659999996191},{""relative-x"":0.24296875,""relative-y"":0.19875,""elapse-time"":1797.2499999959837},{""relative-x"":0.2796875,""relative-y"":0.2025,""elapse-time"":1859.6749999996973},{""relative-x"":0.178125,""relative-y"":0.19375,""elapse-time"":1933.7799999993877},{""relative-x"":0.20390625,""relative-y"":0.21,""elapse-time"":2001.33499999356},{""relative-x"":0.2078125,""relative-y"":0.21,""elapse-time"":2071.104999995441},{""relative-x"":0.20625,""relative-y"":0.21,""elapse-time"":2134.8799999977928},{""relative-x"":0.2046875,""relative-y"":0.2075,""elapse-time"":2204.7099999981583},{""relative-x"":0.2046875,""relative-y"":0.2075,""elapse-time"":2272.2649999996065},{""relative-x"":0.20390625,""relative-y"":0.20625,""elapse-time"":2335.5999999985215},{""relative-x"":0.21015625,""relative-y"":0.21375,""elapse-time"":2406.7849999992177},{""relative-x"":0.2109375,""relative-y"":0.21375,""elapse-time"":2472.489999992831},{""relative-x"":0.2078125,""relative-y"":0.21125,""elapse-time"":2536.969999993744},{""relative-x"":0.13046875,""relative-y"":0.1325,""elapse-time"":3625.8449999950244},{""relative-x"":0.20625,""relative-y"":0.21125,""elapse-time"":3775.629999996454},{""relative-x"":0.2046875,""relative-y"":0.21,""elapse-time"":3839.5949999976438},{""relative-x"":0.19921875,""relative-y"":0.20375,""elapse-time"":3897.2499999945285},{""relative-x"":0.2234375,""relative-y"":0.235,""elapse-time"":3965.6449999965844},{""relative-x"":0.21015625,""relative-y"":0.21875,""elapse-time"":4040.869999997085},{""relative-x"":0.22734375,""relative-y"":0.24125,""elapse-time"":4119.884999992792},{""relative-x"":0.2296875,""relative-y"":0.2425,""elapse-time"":4183.944999997038},{""relative-x"":0.21953125,""relative-y"":0.23375,""elapse-time"":4248.22999999742}]}","2021-01-14 11:21:39",,"Mozilla/5.0 (Macintosh; Intel Mac OS X 10_13_6) AppleWebKit/537.36 (KHTML, like Gecko) Chrome/87.0.4280.141 Safari/537.36",Macintosh,Chrome,87.0.4280.141,"OS X",10_13_6
18,1,null,"""","""","""","""",html-keyboard-response,16,35348,0.0-12.0-2.0-0.1,297,0,0,"Integrierte iSight-Kamera (05ac:8507)",30.000030517578125,0.0020833333333333333,480,640,"""",null,"""","""","""","""","""","""","2021-01-14 11:21:39",,"Mozilla/5.0 (Macintosh; Intel Mac OS X 10_13_6) AppleWebKit/537.36 (KHTML, like Gecko) Chrome/87.0.4280.141 Safari/537.36",Macintosh,Chrome,87.0.4280.141,"OS X",10_13_6
18,1,"""","""","""",1280,800,eyetracking-calibration,17,39140,0.0-12.0-2.0-1.1,297,0,0,"Integrierte iSight-Kamera (05ac:8507)",30.000030517578125,0.0020833333333333333,480,640,"""","""","""",0.8,0.2,0,0,"{""history"":[{""relative-x"":0.2140625,""relative-y"":0.23,""elapse-time"":74.36500000039814},{""relative-x"":0.2140625,""relative-y"":0.2275,""elapse-time"":133.19500000216067},{""relative-x"":0.20546875,""relative-y"":0.2175,""elapse-time"":189.13500000053318},{""relative-x"":0.20625,""relative-y"":0.21875,""elapse-time"":245.70500000118045},{""relative-x"":0.21015625,""relative-y"":0.2225,""elapse-time"":305.6549999964773},{""relative-x"":0.21015625,""relative-y"":0.2225,""elapse-time"":359.4200000006822},{""relative-x"":0.4375,""relative-y"":0.46,""elapse-time"":416.21999999915715},{""relative-x"":0.5359375,""relative-y"":0.34375,""elapse-time"":476.5899999983958},{""relative-x"":0.6640625,""relative-y"":0.2125,""elapse-time"":530.9799999959068},{""relative-x"":0.6015625,""relative-y"":0.3025,""elapse-time"":584.2249999986961},{""relative-x"":0.51796875,""relative-y"":0.28375,""elapse-time"":643.6049999974784},{""relative-x"":0.528125,""relative-y"":0.33,""elapse-time"":696.8350000024657},{""relative-x"":0.6203125,""relative-y"":0.23875,""elapse-time"":758.2150000016554},{""relative-x"":0.6859375,""relative-y"":0.2225,""elapse-time"":823.0849999963539},{""relative-x"":0.7484375,""relative-y"":0.24625,""elapse-time"":896.4750000013737},{""relative-x"":0.7765625,""relative-y"":0.21875,""elapse-time"":968.3900000018184},{""relative-x"":0.753125,""relative-y"":0.18375,""elapse-time"":1039.8599999971339},{""relative-x"":0.82578125,""relative-y"":0.2075,""elapse-time"":1126.9400000019232},{""relative-x"":0.7625,""relative-y"":0.2325,""elapse-time"":1180.9549999961746},{""relative-x"":0.7671875,""relative-y"":0.22875,""elapse-time"":1242.9049999991548},{""relative-x"":0.80859375,""relative-y"":0.24375,""elapse-time"":1306.4250000024913},{""relative-x"":0.6921875,""relative-y"":0.2525,""elapse-time"":1380.315000002156},{""relative-x"":0.63046875,""relative-y"":0.2125,""elapse-time"":1451.6749999966123},{""relative-x"":0.74296875,""relative-y"":0.2325,""elapse-time"":1525.965000000724},{""relative-x"":0.8328125,""relative-y"":0.225,""elapse-time"":1592.4450000020443},{""relative-x"":0.5546875,""relative-y"":0.22625,""elapse-time"":1667.3850000006496},{""relative-x"":0.41875,""relative-y"":0.225,""elapse-time"":1739.625000001979},{""relative-x"":0.38671875,""relative-y"":0.2275,""elapse-time"":1804.244999999355},{""relative-x"":0.76328125,""relative-y"":0.23,""elapse-time"":1880.2399999985937},{""relative-x"":0.83671875,""relative-y"":0.2375,""elapse-time"":1950.8399999976973},{""relative-x"":0.74296875,""relative-y"":0.23125,""elapse-time"":2019.4449999980861},{""relative-x"":0.7453125,""relative-y"":0.2275,""elapse-time"":2089.8699999961536},{""relative-x"":0.4578125,""relative-y"":0.21375,""elapse-time"":2161.3949999955366},{""relative-x"":0.578125,""relative-y"":0.22375,""elapse-time"":2233.18499999732},{""relative-x"":0.5296875,""relative-y"":0.22125,""elapse-time"":2293.5299999953713},{""relative-x"":0.54296875,""relative-y"":0.21875,""elapse-time"":2380.41499999963},{""relative-x"":0.88984375,""relative-y"":0.2325,""elapse-time"":2465.8349999954225},{""relative-x"":0.81953125,""relative-y"":0.22625,""elapse-time"":2536.1049999992247},{""relative-x"":0.96328125,""relative-y"":0.23125,""elapse-time"":2608.299999999872},{""relative-x"":0.8984375,""relative-y"":0.2275,""elapse-time"":2680.7599999956437},{""relative-x"":0.85625,""relative-y"":0.2325,""elapse-time"":2770.989999997255},{""relative-x"":0.7140625,""relative-y"":0.2275,""elapse-time"":2841.5099999983795},{""relative-x"":0.70859375,""relative-y"":0.225,""elapse-time"":2915.979999997944},{""relative-x"":0.7921875,""relative-y"":0.23625,""elapse-time"":2993.3299999975134},{""relative-x"":0.76875,""relative-y"":0.235,""elapse-time"":3066.48000000132},{""relative-x"":0.75625,""relative-y"":0.22875,""elapse-time"":3146.209999998973},{""relative-x"":0.86484375,""relative-y"":0.22875,""elapse-time"":3219.9099999997998},{""relative-x"":0.8296875,""relative-y"":0.225,""elapse-time"":3293.7699999965844},{""relative-x"":0.765625,""relative-y"":0.22625,""elapse-time"":3360.244999996212},{""relative-x"":0.81171875,""relative-y"":0.23125,""elapse-time"":3425.199999997858},{""relative-x"":0.87109375,""relative-y"":0.22875,""elapse-time"":3505.3199999965727},{""relative-x"":0.8609375,""relative-y"":0.2275,""elapse-time"":3569.199999998091},{""relative-x"":0.87421875,""relative-y"":0.2325,""elapse-time"":3638.8499999957276},{""relative-x"":0.86875,""relative-y"":0.235,""elapse-time"":3707.430000002205},{""relative-x"":0.9203125,""relative-y"":0.23,""elapse-time"":3782.7150000011898}]}","2021-01-14 11:21:39",,"Mozilla/5.0 (Macintosh; Intel Mac OS X 10_13_6) AppleWebKit/537.36 (KHTML, like Gecko) Chrome/87.0.4280.141 Safari/537.36",Macintosh,Chrome,87.0.4280.141,"OS X",10_13_6
18,1,null,"""","""","""","""",html-keyboard-response,18,40643,0.0-12.0-2.0-0.2,297,0,0,"Integrierte iSight-Kamera (05ac:8507)",30.000030517578125,0.0020833333333333333,480,640,"""",null,"""","""","""","""","""","""","2021-01-14 11:21:39",,"Mozilla/5.0 (Macintosh; Intel Mac OS X 10_13_6) AppleWebKit/537.36 (KHTML, like Gecko) Chrome/87.0.4280.141 Safari/537.36",Macintosh,Chrome,87.0.4280.141,"OS X",10_13_6
18,1,"""","""","""",1280,800,eyetracking-calibration,19,44876,0.0-12.0-2.0-1.2,297,0,0,"Integrierte iSight-Kamera (05ac:8507)",30.000030517578125,0.0020833333333333333,480,640,"""","""","""",0.65,0.65,0,0,"{""history"":[{""relative-x"":0.696875,""relative-y"":0.2275,""elapse-time"":69.50499999948079},{""relative-x"":0.69375,""relative-y"":0.2275,""elapse-time"":126.44999999611173},{""relative-x"":0.8046875,""relative-y"":0.23375,""elapse-time"":181.9649999961257},{""relative-x"":0.87734375,""relative-y"":0.23125,""elapse-time"":234.56499999883818},{""relative-x"":0.7921875,""relative-y"":0.23,""elapse-time"":291.414999999688},{""relative-x"":0.68671875,""relative-y"":0.2275,""elapse-time"":346.68999999848893},{""relative-x"":0.7140625,""relative-y"":0.2325,""elapse-time"":417.5649999961024},{""relative-x"":0.77734375,""relative-y"":0.235,""elapse-time"":480.1149999984773},{""relative-x"":0.87421875,""relative-y"":0.29125,""elapse-time"":551.4449999973294},{""relative-x"":0.87421875,""relative-y"":0.39375,""elapse-time"":622.3399999944377},{""relative-x"":0.684375,""relative-y"":0.49375,""elapse-time"":691.3299999941955},{""relative-x"":0.73046875,""relative-y"":0.39,""elapse-time"":763.0099999951199},{""relative-x"":0.6765625,""relative-y"":0.635,""elapse-time"":845.1649999988149},{""relative-x"":0.675,""relative-y"":0.38,""elapse-time"":919.0249999955995},{""relative-x"":0.65703125,""relative-y"":0.70125,""elapse-time"":990.8099999956903},{""relative-x"":0.63203125,""relative-y"":0.5725,""elapse-time"":1062.5599999984843},{""relative-x"":0.7265625,""relative-y"":0.62375,""elapse-time"":1129.6699999948032},{""relative-x"":0.73203125,""relative-y"":0.56375,""elapse-time"":1186.5749999997206},{""relative-x"":0.7125,""relative-y"":0.6175,""elapse-time"":1253.550000001269},{""relative-x"":0.7015625,""relative-y"":0.6125,""elapse-time"":1319.949999997334},{""relative-x"":0.68125,""relative-y"":0.5575,""elapse-time"":1441.6649999984656},{""relative-x"":0.75,""relative-y"":0.51125,""elapse-time"":1505.9949999995297},{""relative-x"":0.72890625,""relative-y"":0.49625,""elapse-time"":1564.7399999943445},{""relative-x"":0.66171875,""relative-y"":0.52875,""elapse-time"":1639.615000000049},{""relative-x"":0.68359375,""relative-y"":0.64,""elapse-time"":1709.4900000010966},{""relative-x"":0.67890625,""relative-y"":0.57,""elapse-time"":1772.3499999992782},{""relative-x"":0.71796875,""relative-y"":0.75625,""elapse-time"":1847.764999998617},{""relative-x"":0.75625,""relative-y"":0.63875,""elapse-time"":1925.7549999965704},{""relative-x"":0.65703125,""relative-y"":0.6825,""elapse-time"":2002.1100000012666},{""relative-x"":0.6671875,""relative-y"":0.61,""elapse-time"":2061.9299999962095},{""relative-x"":0.68359375,""relative-y"":0.64375,""elapse-time"":2123.3250000004773},{""relative-x"":0.6671875,""relative-y"":0.73125,""elapse-time"":2198.114999999234},{""relative-x"":0.69296875,""relative-y"":0.7475,""elapse-time"":2256.470000000263},{""relative-x"":0.68203125,""relative-y"":0.6975,""elapse-time"":2319.709999996121},{""relative-x"":0.65546875,""relative-y"":0.72375,""elapse-time"":2395.42999999685},{""relative-x"":0.66171875,""relative-y"":0.745,""elapse-time"":2471.5049999940675},{""relative-x"":0.69296875,""relative-y"":0.65625,""elapse-time"":2557.6299999956973},{""relative-x"":0.653125,""relative-y"":0.675,""elapse-time"":2631.034999998519},{""relative-x"":0.621875,""relative-y"":0.4575,""elapse-time"":2700.9449999968638},{""relative-x"":0.66484375,""relative-y"":0.49,""elapse-time"":2769.8749999981374},{""relative-x"":0.8125,""relative-y"":0.47125,""elapse-time"":2842.929999998887},{""relative-x"":0.68671875,""relative-y"":0.4875,""elapse-time"":2912.129999996978},{""relative-x"":0.71796875,""relative-y"":0.5025,""elapse-time"":2977.0099999950617},{""relative-x"":0.6796875,""relative-y"":0.75375,""elapse-time"":3063.6449999947217},{""relative-x"":0.70546875,""relative-y"":0.665,""elapse-time"":3133.0699999962235},{""relative-x"":0.6328125,""relative-y"":0.65,""elapse-time"":3207.394999997632},{""relative-x"":0.76875,""relative-y"":0.6075,""elapse-time"":3283.159999999043},{""relative-x"":0.659375,""relative-y"":0.63875,""elapse-time"":3351.329999997688},{""relative-x"":0.7453125,""relative-y"":0.58125,""elapse-time"":3424.9849999978323},{""relative-x"":0.6828125,""relative-y"":0.645,""elapse-time"":3506.679999998596},{""relative-x"":0.63125,""relative-y"":0.7225,""elapse-time"":3582.174999995914},{""relative-x"":0.5953125,""relative-y"":0.71375,""elapse-time"":3644.6999999971013},{""relative-x"":0.6265625,""relative-y"":0.64375,""elapse-time"":3715.9299999984796},{""relative-x"":0.66171875,""relative-y"":0.6975,""elapse-time"":3789.359999995213},{""relative-x"":0.62109375,""relative-y"":0.67125,""elapse-time"":3868.9899999953923},{""relative-x"":0.65625,""relative-y"":0.62125,""elapse-time"":3947.309999995923},{""relative-x"":0.609375,""relative-y"":0.61875,""elapse-time"":4019.3399999989197},{""relative-x"":0.73984375,""relative-y"":0.6875,""elapse-time"":4093.1649999984074},{""relative-x"":0.74140625,""relative-y"":0.6325,""elapse-time"":4174.689999999828},{""relative-x"":0.64296875,""relative-y"":0.69625,""elapse-time"":4229.059999997844}]}","2021-01-14 11:21:39",,"Mozilla/5.0 (Macintosh; Intel Mac OS X 10_13_6) AppleWebKit/537.36 (KHTML, like Gecko) Chrome/87.0.4280.141 Safari/537.36",Macintosh,Chrome,87.0.4280.141,"OS X",10_13_6
18,1,null,"""","""","""","""",html-keyboard-response,20,46378,0.0-12.0-2.0-0.3,297,0,0,"Integrierte iSight-Kamera (05ac:8507)",30.000030517578125,0.0020833333333333333,480,640,"""",null,"""","""","""","""","""","""","2021-01-14 11:21:39",,"Mozilla/5.0 (Macintosh; Intel Mac OS X 10_13_6) AppleWebKit/537.36 (KHTML, like Gecko) Chrome/87.0.4280.141 Safari/537.36",Macintosh,Chrome,87.0.4280.141,"OS X",10_13_6
18,1,"""","""","""",1280,800,eyetracking-calibration,21,50731,0.0-12.0-2.0-1.3,297,0,0,"Integrierte iSight-Kamera (05ac:8507)",30.000030517578125,0.0020833333333333333,480,640,"""","""","""",0.35,0.35,0,0,"{""history"":[{""relative-x"":0.72890625,""relative-y"":0.58125,""elapse-time"":84.71999999892432},{""relative-x"":0.77734375,""relative-y"":0.4925,""elapse-time"":140.7550000003539},{""relative-x"":0.67109375,""relative-y"":0.6825,""elapse-time"":203.91499999823282},{""relative-x"":0.6546875,""relative-y"":0.6725,""elapse-time"":264.4799999980023},{""relative-x"":0.48359375,""relative-y"":0.7075,""elapse-time"":327.54999999451684},{""relative-x"":0.4890625,""relative-y"":0.74,""elapse-time"":389.854999993986},{""relative-x"":0.503125,""relative-y"":0.67625,""elapse-time"":452.3399999961839},{""relative-x"":0.5734375,""relative-y"":0.62875,""elapse-time"":514.3499999976484},{""relative-x"":0.603125,""relative-y"":0.50375,""elapse-time"":580.244999997376},{""relative-x"":0.58828125,""relative-y"":0.57375,""elapse-time"":649.4749999983469},{""relative-x"":0.446875,""relative-y"":0.4825,""elapse-time"":717.4049999957788},{""relative-x"":0.4546875,""relative-y"":0.4225,""elapse-time"":791.8949999948381},{""relative-x"":0.4734375,""relative-y"":0.4525,""elapse-time"":861.0100000005332},{""relative-x"":0.428125,""relative-y"":0.4075,""elapse-time"":938.9850000006845},{""relative-x"":0.39375,""relative-y"":0.3675,""elapse-time"":1008.9699999953154},{""relative-x"":0.378125,""relative-y"":0.42375,""elapse-time"":1078.3249999949476},{""relative-x"":0.240625,""relative-y"":0.41875,""elapse-time"":1141.3099999990663},{""relative-x"":0.31328125,""relative-y"":0.47625,""elapse-time"":1242.3449999987497},{""relative-x"":0.33046875,""relative-y"":0.44125,""elapse-time"":1305.7599999956437},{""relative-x"":0.42578125,""relative-y"":0.41125,""elapse-time"":1379.8099999985425},{""relative-x"":0.34765625,""relative-y"":0.37,""elapse-time"":1450.9049999978743},{""relative-x"":0.35,""relative-y"":0.45125,""elapse-time"":1518.6150000008638},{""relative-x"":0.3703125,""relative-y"":0.4325,""elapse-time"":1595.354999997653},{""relative-x"":0.3640625,""relative-y"":0.46375,""elapse-time"":1664.2349999965518},{""relative-x"":0.3765625,""relative-y"":0.4775,""elapse-time"":1742.6899999991292},{""relative-x"":0.3703125,""relative-y"":0.4375,""elapse-time"":1814.8399999990943},{""relative-x"":0.4171875,""relative-y"":0.35625,""elapse-time"":1899.6049999987008},{""relative-x"":0.39609375,""relative-y"":0.455,""elapse-time"":1970.3949999966426},{""relative-x"":0.38046875,""relative-y"":0.36625,""elapse-time"":2035.134999998263},{""relative-x"":0.32890625,""relative-y"":0.35875,""elapse-time"":2111.0849999968195},{""relative-x"":0.3046875,""relative-y"":0.4025,""elapse-time"":2173.5249999983353},{""relative-x"":0.39375,""relative-y"":0.39,""elapse-time"":2249.644999996235},{""relative-x"":0.375,""relative-y"":0.36125,""elapse-time"":2324.639999998908},{""relative-x"":0.440625,""relative-y"":0.34875,""elapse-time"":2393.7999999980093},{""relative-x"":0.375,""relative-y"":0.325,""elapse-time"":2469.389999998384},{""relative-x"":0.3296875,""relative-y"":0.32375,""elapse-time"":2541.989999997895},{""relative-x"":0.3234375,""relative-y"":0.4325,""elapse-time"":2629.25499999983},{""relative-x"":0.28046875,""relative-y"":0.3975,""elapse-time"":2699.0049999949406},{""relative-x"":0.2515625,""relative-y"":0.48875,""elapse-time"":2763.7399999948684},{""relative-x"":0.353125,""relative-y"":0.41375,""elapse-time"":2846.9549999936135},{""relative-x"":0.3921875,""relative-y"":0.42875,""elapse-time"":2909.5799999995506},{""relative-x"":0.4734375,""relative-y"":0.30125,""elapse-time"":2994.5650000008754},{""relative-x"":0.44453125,""relative-y"":0.29875,""elapse-time"":3064.5799999983865},{""relative-x"":0.47265625,""relative-y"":0.22625,""elapse-time"":3132.6199999966775},{""relative-x"":0.4171875,""relative-y"":0.47,""elapse-time"":3226.13999999885},{""relative-x"":0.4015625,""relative-y"":0.465,""elapse-time"":3296.6299999970943},{""relative-x"":0.26875,""relative-y"":0.54375,""elapse-time"":3378.824999999779},{""relative-x"":0.3421875,""relative-y"":0.39875,""elapse-time"":3455.5899999977555},{""relative-x"":0.34296875,""relative-y"":0.30375,""elapse-time"":3523.0499999961467},{""relative-x"":0.34921875,""relative-y"":0.36375,""elapse-time"":3582.555000000866},{""relative-x"":0.384375,""relative-y"":0.34625,""elapse-time"":3645.590000000084},{""relative-x"":0.3625,""relative-y"":0.4325,""elapse-time"":3715.2099999948405},{""relative-x"":0.46875,""relative-y"":0.505,""elapse-time"":3783.9849999945727},{""relative-x"":0.459375,""relative-y"":0.48625,""elapse-time"":3847.7700000003097},{""relative-x"":0.384375,""relative-y"":0.39125,""elapse-time"":3916.6149999946356},{""relative-x"":0.28203125,""relative-y"":0.415,""elapse-time"":3979.124999998021},{""relative-x"":0.3640625,""relative-y"":0.46,""elapse-time"":4051.4399999956368},{""relative-x"":0.38203125,""relative-y"":0.4175,""elapse-time"":4123.304999993707},{""relative-x"":0.334375,""relative-y"":0.36875,""elapse-time"":4193.39499999478},{""relative-x"":0.35078125,""relative-y"":0.34875,""elapse-time"":4272.304999998596},{""relative-x"":0.3359375,""relative-y"":0.455,""elapse-time"":4339.404999998806}]}","2021-01-14 11:21:39",,"Mozilla/5.0 (Macintosh; Intel Mac OS X 10_13_6) AppleWebKit/537.36 (KHTML, like Gecko) Chrome/87.0.4280.141 Safari/537.36",Macintosh,Chrome,87.0.4280.141,"OS X",10_13_6
18,1,null,"""","""","""","""",html-keyboard-response,22,52236,0.0-12.0-2.0-0.4,297,0,0,"Integrierte iSight-Kamera (05ac:8507)",30.000030517578125,0.0020833333333333333,480,640,"""",null,"""","""","""","""","""","""","2021-01-14 11:21:39",,"Mozilla/5.0 (Macintosh; Intel Mac OS X 10_13_6) AppleWebKit/537.36 (KHTML, like Gecko) Chrome/87.0.4280.141 Safari/537.36",Macintosh,Chrome,87.0.4280.141,"OS X",10_13_6
18,1,"""","""","""",1280,800,eyetracking-calibration,23,56349,0.0-12.0-2.0-1.4,297,0,0,"Integrierte iSight-Kamera (05ac:8507)",30.000030517578125,0.0020833333333333333,480,640,"""","""","""",0.2,0.5,0,0,"{""history"":[{""relative-x"":0.46015625,""relative-y"":0.40375,""elapse-time"":82.0400000011432},{""relative-x"":0.425,""relative-y"":0.445,""elapse-time"":147.11000000534113},{""relative-x"":0.54765625,""relative-y"":0.42375,""elapse-time"":216.39000000141095},{""relative-x"":0.4625,""relative-y"":0.38625,""elapse-time"":284.2349999991711},{""relative-x"":0.503125,""relative-y"":0.4025,""elapse-time"":351.8450000046869},{""relative-x"":0.26796875,""relative-y"":0.50625,""elapse-time"":417.93000000325264},{""relative-x"":0.39765625,""relative-y"":0.3425,""elapse-time"":483.03999999916414},{""relative-x"":0.26328125,""relative-y"":0.5775,""elapse-time"":548.995000004652},{""relative-x"":0.290625,""relative-y"":0.39125,""elapse-time"":610.5349999997998},{""relative-x"":0.3125,""relative-y"":0.4625,""elapse-time"":669.6000000010827},{""relative-x"":0.2859375,""relative-y"":0.48375,""elapse-time"":741.200000004028},{""relative-x"":0.40390625,""relative-y"":0.47375,""elapse-time"":818.9500000007683},{""relative-x"":0.3,""relative-y"":0.545,""elapse-time"":891.5650000053574},{""relative-x"":0.290625,""relative-y"":0.46,""elapse-time"":957.0800000001327},{""relative-x"":0.21484375,""relative-y"":0.455,""elapse-time"":1022.3900000055437},{""relative-x"":0.25703125,""relative-y"":0.48875,""elapse-time"":1080.565000003844},{""relative-x"":0.3984375,""relative-y"":0.525,""elapse-time"":1151.2450000009267},{""relative-x"":0.32890625,""relative-y"":0.43375,""elapse-time"":1225.6350000025122},{""relative-x"":0.28984375,""relative-y"":0.5625,""elapse-time"":1295.109999999113},{""relative-x"":0.278125,""relative-y"":0.5125,""elapse-time"":1355.8300000004238},{""relative-x"":0.18984375,""relative-y"":0.47625,""elapse-time"":1421.280000002298},{""relative-x"":0.25859375,""relative-y"":0.4575,""elapse-time"":1490.0249999991502},{""relative-x"":0.2875,""relative-y"":0.49125,""elapse-time"":1557.2400000019115},{""relative-x"":0.19296875,""relative-y"":0.56375,""elapse-time"":1629.045000001497},{""relative-x"":0.25078125,""relative-y"":0.59375,""elapse-time"":1703.8200000024517},{""relative-x"":0.28671875,""relative-y"":0.45875,""elapse-time"":1782.0500000016182},{""relative-x"":0.22421875,""relative-y"":0.56,""elapse-time"":1844.6150000017951},{""relative-x"":0.24921875,""relative-y"":0.45125,""elapse-time"":1917.9650000005495},{""relative-x"":0.25859375,""relative-y"":0.51875,""elapse-time"":2001.3550000003306},{""relative-x"":0.33671875,""relative-y"":0.54125,""elapse-time"":2085.595000004105},{""relative-x"":0.22890625,""relative-y"":0.545,""elapse-time"":2160.53500000271},{""relative-x"":0.31640625,""relative-y"":0.5075,""elapse-time"":2248.540000000503},{""relative-x"":0.278125,""relative-y"":0.5325,""elapse-time"":2318.4500000061234},{""relative-x"":0.178125,""relative-y"":0.50625,""elapse-time"":2382.850000001781},{""relative-x"":0.21875,""relative-y"":0.55875,""elapse-time"":2462.3800000044866},{""relative-x"":0.259375,""relative-y"":0.56375,""elapse-time"":2543.564999999944},{""relative-x"":0.22421875,""relative-y"":0.41125,""elapse-time"":2621.96500000573},{""relative-x"":0.2546875,""relative-y"":0.4875,""elapse-time"":2689.8700000019744},{""relative-x"":0.19375,""relative-y"":0.46125,""elapse-time"":2779.4900000008056},{""relative-x"":0.5390625,""relative-y"":0.5825,""elapse-time"":2859.905000004801},{""relative-x"":0.43671875,""relative-y"":0.6175,""elapse-time"":2944.2699999999604},{""relative-x"":0.31953125,""relative-y"":0.61125,""elapse-time"":3017.745000004652},{""relative-x"":0.2125,""relative-y"":0.62625,""elapse-time"":3135.4300000020885},{""relative-x"":0.19375,""relative-y"":0.5475,""elapse-time"":3206.2900000019},{""relative-x"":0.27109375,""relative-y"":0.435,""elapse-time"":3268.9900000041234},{""relative-x"":0.259375,""relative-y"":0.4525,""elapse-time"":3334.5699999990757},{""relative-x"":0.28359375,""relative-y"":0.445,""elapse-time"":3393.085000003339},{""relative-x"":0.20859375,""relative-y"":0.4425,""elapse-time"":3468.9650000000256},{""relative-x"":0.2609375,""relative-y"":0.41125,""elapse-time"":3542.379999998957},{""relative-x"":0.253125,""relative-y"":0.50625,""elapse-time"":3619.65500000224},{""relative-x"":0.2109375,""relative-y"":0.36625,""elapse-time"":3680.0550000043586},{""relative-x"":0.1734375,""relative-y"":0.36,""elapse-time"":3744.5150000057765},{""relative-x"":0.24609375,""relative-y"":0.54375,""elapse-time"":3821.1150000061025},{""relative-x"":0.2296875,""relative-y"":0.5725,""elapse-time"":3895.605000005162},{""relative-x"":0.25,""relative-y"":0.45875,""elapse-time"":3963.5249999992084},{""relative-x"":0.2421875,""relative-y"":0.44375,""elapse-time"":4029.920000000857},{""relative-x"":0.1859375,""relative-y"":0.54875,""elapse-time"":4100.6600000037}]}","2021-01-14 11:21:39",,"Mozilla/5.0 (Macintosh; Intel Mac OS X 10_13_6) AppleWebKit/537.36 (KHTML, like Gecko) Chrome/87.0.4280.141 Safari/537.36",Macintosh,Chrome,87.0.4280.141,"OS X",10_13_6
18,1,null,"""","""","""","""",html-keyboard-response,24,57851,0.0-12.0-2.0-0.5,297,0,0,"Integrierte iSight-Kamera (05ac:8507)",30.000030517578125,0.0020833333333333333,480,640,"""",null,"""","""","""","""","""","""","2021-01-14 11:21:39",,"Mozilla/5.0 (Macintosh; Intel Mac OS X 10_13_6) AppleWebKit/537.36 (KHTML, like Gecko) Chrome/87.0.4280.141 Safari/537.36",Macintosh,Chrome,87.0.4280.141,"OS X",10_13_6
18,1,"""","""","""",1280,800,eyetracking-calibration,25,62421,0.0-12.0-2.0-1.5,297,0,0,"Integrierte iSight-Kamera (05ac:8507)",30.000030517578125,0.0020833333333333333,480,640,"""","""","""",0.8,0.8,0,0,"{""history"":[{""relative-x"":0.2765625,""relative-y"":0.5025,""elapse-time"":78.19000000017695},{""relative-x"":0.3125,""relative-y"":0.48125,""elapse-time"":146.5950000056182},{""relative-x"":0.2734375,""relative-y"":0.5225,""elapse-time"":210.6899999998859},{""relative-x"":0.196875,""relative-y"":0.63,""elapse-time"":276.7749999984517},{""relative-x"":0.328125,""relative-y"":0.6175,""elapse-time"":340.68000000115717},{""relative-x"":0.7109375,""relative-y"":0.75125,""elapse-time"":406.17000000202097},{""relative-x"":0.80078125,""relative-y"":0.5975,""elapse-time"":470.8900000041467},{""relative-x"":0.74453125,""relative-y"":0.675,""elapse-time"":534.8850000009406},{""relative-x"":0.790625,""relative-y"":0.60625,""elapse-time"":598.0150000032154},{""relative-x"":0.6546875,""relative-y"":0.67,""elapse-time"":666.9949999995879},{""relative-x"":0.63046875,""relative-y"":0.42875,""elapse-time"":733.2549999991897},{""relative-x"":0.63671875,""relative-y"":0.64,""elapse-time"":802.7500000025611},{""relative-x"":0.734375,""relative-y"":0.6225,""elapse-time"":863.7300000045798},{""relative-x"":0.71328125,""relative-y"":0.7425,""elapse-time"":926.8349999983911},{""relative-x"":0.634375,""relative-y"":0.7675,""elapse-time"":992.3249999992549},{""relative-x"":0.715625,""relative-y"":0.85875,""elapse-time"":1060.9299999996438},{""relative-x"":0.62578125,""relative-y"":0.7675,""elapse-time"":1130.170000004},{""relative-x"":0.5609375,""relative-y"":0.795,""elapse-time"":1199.2650000029244},{""relative-x"":0.43125,""relative-y"":0.7225,""elapse-time"":1261.225000002014},{""relative-x"":0.5296875,""relative-y"":0.8125,""elapse-time"":1325.2100000026985},{""relative-x"":0.49921875,""relative-y"":0.8125,""elapse-time"":1391.524999999092},{""relative-x"":0.7609375,""relative-y"":0.63625,""elapse-time"":1454.8849999991944},{""relative-x"":0.69609375,""relative-y"":0.70375,""elapse-time"":1533.0350000003818},{""relative-x"":0.57421875,""relative-y"":0.80125,""elapse-time"":1613.085000004503},{""relative-x"":0.51796875,""relative-y"":0.6675,""elapse-time"":1680.7250000056229},{""relative-x"":0.54609375,""relative-y"":0.67625,""elapse-time"":1749.905000004219},{""relative-x"":0.6171875,""relative-y"":0.65875,""elapse-time"":1820.254999998724},{""relative-x"":0.81796875,""relative-y"":0.90625,""elapse-time"":1895.6400000024587},{""relative-x"":0.74765625,""relative-y"":0.77875,""elapse-time"":1980.7399999990594},{""relative-x"":0.73203125,""relative-y"":0.79875,""elapse-time"":2055.7300000000396},{""relative-x"":0.7015625,""relative-y"":0.7475,""elapse-time"":2133.3599999998114},{""relative-x"":0.790625,""relative-y"":0.81875,""elapse-time"":2203.4350000030827},{""relative-x"":0.78984375,""relative-y"":0.82375,""elapse-time"":2282.1699999985867},{""relative-x"":0.8234375,""relative-y"":0.8975,""elapse-time"":2369.715000000724},{""relative-x"":0.76484375,""relative-y"":0.8175,""elapse-time"":2436.809999999241},{""relative-x"":0.7625,""relative-y"":0.78,""elapse-time"":2507.785000001604},{""relative-x"":0.7265625,""relative-y"":0.78125,""elapse-time"":2574.735000001965},{""relative-x"":0.90703125,""relative-y"":0.78125,""elapse-time"":2642.4800000022515},{""relative-x"":0.809375,""relative-y"":0.76,""elapse-time"":2712.0950000025914},{""relative-x"":0.85390625,""relative-y"":0.73875,""elapse-time"":2791.5399999983492},{""relative-x"":0.7890625,""relative-y"":0.8125,""elapse-time"":2863.085000004503},{""relative-x"":0.84140625,""relative-y"":0.78375,""elapse-time"":2926.5050000030897},{""relative-x"":0.7796875,""relative-y"":0.81375,""elapse-time"":3000.704999998561},{""relative-x"":0.85546875,""relative-y"":0.765,""elapse-time"":3070.045000000391},{""relative-x"":0.93046875,""relative-y"":0.77,""elapse-time"":3141.410000003816},{""relative-x"":0.7890625,""relative-y"":0.73875,""elapse-time"":3226.8200000034994},{""relative-x"":0.7484375,""relative-y"":0.82875,""elapse-time"":3305.704999998852},{""relative-x"":0.37890625,""relative-y"":0.70125,""elapse-time"":3375.5250000031083},{""relative-x"":0.4515625,""relative-y"":0.65625,""elapse-time"":3448.275000002468},{""relative-x"":0.665625,""relative-y"":0.57125,""elapse-time"":3535.8850000047823},{""relative-x"":0.81875,""relative-y"":0.52,""elapse-time"":3609.855000002426},{""relative-x"":0.73984375,""relative-y"":0.60125,""elapse-time"":3685.495000005176},{""relative-x"":0.83984375,""relative-y"":0.93,""elapse-time"":3762.5049999987823},{""relative-x"":0.871875,""relative-y"":0.85875,""elapse-time"":3841.1200000045937},{""relative-x"":0.87109375,""relative-y"":0.73375,""elapse-time"":3917.440000004717},{""relative-x"":0.7984375,""relative-y"":0.81625,""elapse-time"":3998.4699999986333},{""relative-x"":0.88359375,""relative-y"":0.93125,""elapse-time"":4085.1350000011735},{""relative-x"":0.796875,""relative-y"":0.80375,""elapse-time"":4165.785000004689},{""relative-x"":0.771875,""relative-y"":0.785,""elapse-time"":4237.0650000011665},{""relative-x"":0.91796875,""relative-y"":0.70125,""elapse-time"":4321.3400000022375},{""relative-x"":0.83125,""relative-y"":0.71625,""elapse-time"":4400.350000003527},{""relative-x"":0.82890625,""relative-y"":0.765,""elapse-time"":4476.775000002817},{""relative-x"":0.85859375,""relative-y"":0.8225,""elapse-time"":4552.569999999832}]}","2021-01-14 11:21:39",,"Mozilla/5.0 (Macintosh; Intel Mac OS X 10_13_6) AppleWebKit/537.36 (KHTML, like Gecko) Chrome/87.0.4280.141 Safari/537.36",Macintosh,Chrome,87.0.4280.141,"OS X",10_13_6
18,1,null,"""","""","""","""",html-keyboard-response,26,63926,0.0-12.0-2.0-0.6,297,0,0,"Integrierte iSight-Kamera (05ac:8507)",30.000030517578125,0.0020833333333333333,480,640,"""",null,"""","""","""","""","""","""","2021-01-14 11:21:39",,"Mozilla/5.0 (Macintosh; Intel Mac OS X 10_13_6) AppleWebKit/537.36 (KHTML, like Gecko) Chrome/87.0.4280.141 Safari/537.36",Macintosh,Chrome,87.0.4280.141,"OS X",10_13_6
18,1,"""","""","""",1280,800,eyetracking-calibration,27,68480,0.0-12.0-2.0-1.6,297,0,0,"Integrierte iSight-Kamera (05ac:8507)",30.000030517578125,0.0020833333333333333,480,640,"""","""","""",0.2,0.8,0,0,"{""history"":[{""relative-x"":0.64765625,""relative-y"":0.6925,""elapse-time"":86.06000000145286},{""relative-x"":0.6890625,""relative-y"":0.61625,""elapse-time"":154.130000002624},{""relative-x"":0.7109375,""relative-y"":0.6525,""elapse-time"":221.79999999934807},{""relative-x"":0.65234375,""relative-y"":0.50625,""elapse-time"":287.7200000002631},{""relative-x"":0.62734375,""relative-y"":0.53125,""elapse-time"":405.0950000018929},{""relative-x"":0.553125,""relative-y"":0.57125,""elapse-time"":489.45500000263564},{""relative-x"":0.24453125,""relative-y"":0.955,""elapse-time"":566.4600000018254},{""relative-x"":0.29765625,""relative-y"":0.74875,""elapse-time"":651.3100000011036},{""relative-x"":0.2796875,""relative-y"":0.7675,""elapse-time"":727.035000003525},{""relative-x"":0.109375,""relative-y"":0.57375,""elapse-time"":809.4950000013341},{""relative-x"":0.23203125,""relative-y"":0.6675,""elapse-time"":890.9599999969942},{""relative-x"":0.240625,""relative-y"":0.6875,""elapse-time"":970.0099999972736},{""relative-x"":0.25703125,""relative-y"":0.7575,""elapse-time"":1033.3250000039698},{""relative-x"":0.2875,""relative-y"":0.8075,""elapse-time"":1118.7500000014552},{""relative-x"":0.0328125,""relative-y"":0.87875,""elapse-time"":1194.00499999756},{""relative-x"":0.046875,""relative-y"":0.945,""elapse-time"":1270.18500000122},{""relative-x"":0.25390625,""relative-y"":0.74125,""elapse-time"":1345.5749999993714},{""relative-x"":0.28828125,""relative-y"":0.54375,""elapse-time"":1422.0249999998487},{""relative-x"":0.16015625,""relative-y"":0.65625,""elapse-time"":1502.0300000032876},{""relative-x"":0.2125,""relative-y"":0.82125,""elapse-time"":1585.8549999975367},{""relative-x"":0.36015625,""relative-y"":0.72,""elapse-time"":1661.9799999971292},{""relative-x"":0.31171875,""relative-y"":0.67125,""elapse-time"":1732.799999997951},{""relative-x"":0.3296875,""relative-y"":0.7425,""elapse-time"":1805.6550000037532},{""relative-x"":0.25703125,""relative-y"":0.87375,""elapse-time"":1893.8399999969988},{""relative-x"":0.06953125,""relative-y"":1.02125,""elapse-time"":1975.3399999972316},{""relative-x"":0.30546875,""relative-y"":0.83875,""elapse-time"":2058.6100000000442},{""relative-x"":0.14765625,""relative-y"":0.7525,""elapse-time"":2141.5800000031595},{""relative-x"":0.25703125,""relative-y"":0.8775,""elapse-time"":2237.2749999994994},{""relative-x"":0.06015625,""relative-y"":0.63125,""elapse-time"":2324.655000003986},{""relative-x"":0.259375,""relative-y"":0.88125,""elapse-time"":2401.7099999982747},{""relative-x"":0.3,""relative-y"":0.65375,""elapse-time"":2475.270000002638},{""relative-x"":0.21484375,""relative-y"":0.68875,""elapse-time"":2548.8249999980326},{""relative-x"":0.27109375,""relative-y"":0.8975,""elapse-time"":2634.554999996908},{""relative-x"":0.053125,""relative-y"":0.6475,""elapse-time"":2703.770000000077},{""relative-x"":0.284375,""relative-y"":0.76625,""elapse-time"":2777.3549999983516},{""relative-x"":0.2546875,""relative-y"":0.735,""elapse-time"":2848.275000003923},{""relative-x"":0.29453125,""relative-y"":0.54625,""elapse-time"":2919.6650000012596},{""relative-x"":0.63046875,""relative-y"":0.93625,""elapse-time"":3001.430000003893},{""relative-x"":0.4765625,""relative-y"":0.75875,""elapse-time"":3078.0050000030315},{""relative-x"":0.478125,""relative-y"":0.755,""elapse-time"":3146.8949999980396},{""relative-x"":0.3328125,""relative-y"":0.6,""elapse-time"":3236.1799999998766},{""relative-x"":0.26171875,""relative-y"":0.645,""elapse-time"":3319.9600000007194},{""relative-x"":0.296875,""relative-y"":0.82875,""elapse-time"":3391.5649999980815},{""relative-x"":0.23046875,""relative-y"":0.70875,""elapse-time"":3465.215000003809},{""relative-x"":0.35859375,""relative-y"":0.72125,""elapse-time"":3537.2199999983422},{""relative-x"":0.440625,""relative-y"":0.9525,""elapse-time"":3626.8700000000536},{""relative-x"":0.29609375,""relative-y"":0.8025,""elapse-time"":3711.119999999937},{""relative-x"":0.35546875,""relative-y"":0.8975,""elapse-time"":3787.3749999998836},{""relative-x"":0.2515625,""relative-y"":0.71875,""elapse-time"":3860.805000003893},{""relative-x"":0.21953125,""relative-y"":0.83,""elapse-time"":3946.3899999973364},{""relative-x"":0.14921875,""relative-y"":0.9375,""elapse-time"":4019.9649999995017},{""relative-x"":0.19375,""relative-y"":0.77875,""elapse-time"":4092.4850000010338},{""relative-x"":0.18671875,""relative-y"":0.7375,""elapse-time"":4168.0449999985285},{""relative-x"":0.25625,""relative-y"":0.8175,""elapse-time"":4245.224999998754},{""relative-x"":0.17421875,""relative-y"":0.75,""elapse-time"":4320.930000001681},{""relative-x"":0.17265625,""relative-y"":0.92,""elapse-time"":4397.015000002284},{""relative-x"":0.10859375,""relative-y"":0.8375,""elapse-time"":4467.4099999974715},{""relative-x"":0.21484375,""relative-y"":0.82875,""elapse-time"":4539.980000001378}]}","2021-01-14 11:21:39",,"Mozilla/5.0 (Macintosh; Intel Mac OS X 10_13_6) AppleWebKit/537.36 (KHTML, like Gecko) Chrome/87.0.4280.141 Safari/537.36",Macintosh,Chrome,87.0.4280.141,"OS X",10_13_6
18,1,null,"""","""","""","""",html-keyboard-response,28,69982,0.0-12.0-2.0-0.7,297,0,0,"Integrierte iSight-Kamera (05ac:8507)",30.000030517578125,0.0020833333333333333,480,640,"""",null,"""","""","""","""","""","""","2021-01-14 11:21:39",,"Mozilla/5.0 (Macintosh; Intel Mac OS X 10_13_6) AppleWebKit/537.36 (KHTML, like Gecko) Chrome/87.0.4280.141 Safari/537.36",Macintosh,Chrome,87.0.4280.141,"OS X",10_13_6
18,1,"""","""","""",1280,800,eyetracking-calibration,29,73984,0.0-12.0-2.0-1.7,297,0,0,"Integrierte iSight-Kamera (05ac:8507)",30.000030517578125,0.0020833333333333333,480,640,"""","""","""",0.5,0.2,0,0,"{""history"":[{""relative-x"":0.39375,""relative-y"":0.50625,""elapse-time"":85.54000000003725},{""relative-x"":0.45,""relative-y"":0.48,""elapse-time"":197.86500000191154},{""relative-x"":0.20390625,""relative-y"":0.60875,""elapse-time"":265.52000000083353},{""relative-x"":0.2859375,""relative-y"":0.49625,""elapse-time"":331.4299999983632},{""relative-x"":0.29296875,""relative-y"":0.425,""elapse-time"":401.0800000032759},{""relative-x"":0.30234375,""relative-y"":0.6775,""elapse-time"":473.42500000377186},{""relative-x"":0.55625,""relative-y"":0.6625,""elapse-time"":555.7499999995343},{""relative-x"":0.621875,""relative-y"":0.4225,""elapse-time"":646.9500000021071},{""relative-x"":0.5546875,""relative-y"":0.25,""elapse-time"":733.5800000000745},{""relative-x"":0.77265625,""relative-y"":0.42625,""elapse-time"":810.7850000014878},{""relative-x"":0.50625,""relative-y"":0.535,""elapse-time"":905.9049999996205},{""relative-x"":0.60546875,""relative-y"":0.43625,""elapse-time"":998.4400000030291},{""relative-x"":0.4921875,""relative-y"":-0.1375,""elapse-time"":1078.654999997525},{""relative-x"":0.51875,""relative-y"":-0.035,""elapse-time"":1156.329999997979},{""relative-x"":0.4640625,""relative-y"":0.17,""elapse-time"":1224.7050000005402},{""relative-x"":0.55625,""relative-y"":0.1325,""elapse-time"":1300.9749999982887},{""relative-x"":0.70703125,""relative-y"":0.11875,""elapse-time"":1376.7250000018976},{""relative-x"":0.37421875,""relative-y"":0.28875,""elapse-time"":1449.8450000028242},{""relative-x"":0.475,""relative-y"":-0.1575,""elapse-time"":1524.890000000596},{""relative-x"":0.353125,""relative-y"":0.17375,""elapse-time"":1611.3049999985378},{""relative-x"":0.3859375,""relative-y"":0.0725,""elapse-time"":1690.0400000013178},{""relative-x"":0.51796875,""relative-y"":0.0975,""elapse-time"":1761.7499999978463},{""relative-x"":0.3984375,""relative-y"":-0.105,""elapse-time"":1837.8300000040326},{""relative-x"":0.37265625,""relative-y"":-0.13625,""elapse-time"":1919.755000002624},{""relative-x"":0.378125,""relative-y"":0.04625,""elapse-time"":2004.8949999982142},{""relative-x"":0.7578125,""relative-y"":0.73375,""elapse-time"":2083.149999998568},{""relative-x"":0.7984375,""relative-y"":0.63,""elapse-time"":2166.9850000034785},{""relative-x"":0.6484375,""relative-y"":0.44,""elapse-time"":2246.6399999975692},{""relative-x"":0.41953125,""relative-y"":0.045,""elapse-time"":2335.299999998824},{""relative-x"":0.10703125,""relative-y"":-0.77375,""elapse-time"":2423.175000003539},{""relative-x"":0.1953125,""relative-y"":-0.125,""elapse-time"":2505.315000002156},{""relative-x"":0.1984375,""relative-y"":0.24,""elapse-time"":2581.4049999971758},{""relative-x"":0.42734375,""relative-y"":0.6975,""elapse-time"":2666.0849999971106},{""relative-x"":0.57890625,""relative-y"":0.26125,""elapse-time"":2749.2399999973713},{""relative-x"":0.296875,""relative-y"":-0.2375,""elapse-time"":2841.2200000020675},{""relative-x"":0.50078125,""relative-y"":-0.075,""elapse-time"":2924.039999998058},{""relative-x"":0.28984375,""relative-y"":0.12625,""elapse-time"":2995.340000001306},{""relative-x"":0.39453125,""relative-y"":0.295,""elapse-time"":3078.314999998838},{""relative-x"":0.3921875,""relative-y"":-0.01125,""elapse-time"":3150.6850000005215},{""relative-x"":-0.06171875,""relative-y"":-0.7675,""elapse-time"":3231.710000000021},{""relative-x"":0.24609375,""relative-y"":0.0125,""elapse-time"":3311.5150000012363},{""relative-x"":0.71484375,""relative-y"":0.95875,""elapse-time"":3384.154999999737},{""relative-x"":0.4125,""relative-y"":0.63,""elapse-time"":3448.9749999993364},{""relative-x"":0.44765625,""relative-y"":0.45875,""elapse-time"":3527.265000004263},{""relative-x"":0.0359375,""relative-y"":0.80375,""elapse-time"":3605.360000001383},{""relative-x"":2.07421875,""relative-y"":-2.26625,""elapse-time"":3678.2549999988987},{""relative-x"":2.07109375,""relative-y"":-2.54625,""elapse-time"":3750.189999998838},{""relative-x"":0.684375,""relative-y"":0.96,""elapse-time"":3827.5849999990896},{""relative-x"":0.32734375,""relative-y"":-0.15375,""elapse-time"":3905.46500000346},{""relative-x"":1.19453125,""relative-y"":0.75625,""elapse-time"":3982.3899999973946}]}","2021-01-14 11:21:39",,"Mozilla/5.0 (Macintosh; Intel Mac OS X 10_13_6) AppleWebKit/537.36 (KHTML, like Gecko) Chrome/87.0.4280.141 Safari/537.36",Macintosh,Chrome,87.0.4280.141,"OS X",10_13_6
18,1,null,"""","""","""","""",html-keyboard-response,30,75487,0.0-12.0-2.0-0.8,297,0,0,"Integrierte iSight-Kamera (05ac:8507)",30.000030517578125,0.0020833333333333333,480,640,"""",null,"""","""","""","""","""","""","2021-01-14 11:21:39",,"Mozilla/5.0 (Macintosh; Intel Mac OS X 10_13_6) AppleWebKit/537.36 (KHTML, like Gecko) Chrome/87.0.4280.141 Safari/537.36",Macintosh,Chrome,87.0.4280.141,"OS X",10_13_6
18,1,"""","""","""",1280,800,eyetracking-calibration,31,80134,0.0-12.0-2.0-1.8,297,0,0,"Integrierte iSight-Kamera (05ac:8507)",30.000030517578125,0.0020833333333333333,480,640,"""","""","""",0.65,0.35,0,0,"{""history"":[{""relative-x"":-2.19375,""relative-y"":2.4275,""elapse-time"":82.93499999854248},{""relative-x"":-4.80859375,""relative-y"":2.52,""elapse-time"":143.6150000008638},{""relative-x"":-1.084375,""relative-y"":0.74125,""elapse-time"":206.2450000012177},{""relative-x"":2.3703125,""relative-y"":-1.65125,""elapse-time"":268.7000000005355},{""relative-x"":1.1046875,""relative-y"":-1.17375,""elapse-time"":332.36500000202795},{""relative-x"":2.88125,""relative-y"":-1.4225,""elapse-time"":396.7849999971804},{""relative-x"":4.31640625,""relative-y"":-1.80625,""elapse-time"":463.7650000004214},{""relative-x"":7.375,""relative-y"":-3.7825,""elapse-time"":537.2449999995297},{""relative-x"":5.6765625,""relative-y"":-3.20375,""elapse-time"":669.2699999985052},{""relative-x"":8.14765625,""relative-y"":-2.04,""elapse-time"":739.1050000005635},{""relative-x"":4.98359375,""relative-y"":-0.9325,""elapse-time"":810.4499999972177},{""relative-x"":2.77734375,""relative-y"":-0.305,""elapse-time"":880.61999999627},{""relative-x"":3.303125,""relative-y"":-0.3625,""elapse-time"":947.664999999688},{""relative-x"":2.571875,""relative-y"":1.24375,""elapse-time"":1016.5199999973993},{""relative-x"":-0.24765625,""relative-y"":1.28625,""elapse-time"":1084.7700000012992},{""relative-x"":2.00546875,""relative-y"":0.38625,""elapse-time"":1155.8250000016415},{""relative-x"":3.36875,""relative-y"":-1.27125,""elapse-time"":1245.2199999970617},{""relative-x"":0.42421875,""relative-y"":0.09875,""elapse-time"":1334.8750000004657},{""relative-x"":-0.04296875,""relative-y"":0.6225,""elapse-time"":1424.379999996745},{""relative-x"":1.66328125,""relative-y"":0.82375,""elapse-time"":1510.295000000042},{""relative-x"":0.56328125,""relative-y"":0.5075,""elapse-time"":1598.3449999985169},{""relative-x"":0.48125,""relative-y"":0.2775,""elapse-time"":1682.2299999985262},{""relative-x"":0.69609375,""relative-y"":0.01875,""elapse-time"":1766.2899999995716},{""relative-x"":0.1234375,""relative-y"":-1.41125,""elapse-time"":1844.7250000026543},{""relative-x"":0.4375,""relative-y"":0.2175,""elapse-time"":1920.2250000016647},{""relative-x"":0.46328125,""relative-y"":0.4075,""elapse-time"":1999.9150000003283},{""relative-x"":1.18125,""relative-y"":1.23625,""elapse-time"":2088.5100000014063},{""relative-x"":0.40390625,""relative-y"":0.91125,""elapse-time"":2174.3399999977555},{""relative-x"":0.3703125,""relative-y"":-0.0875,""elapse-time"":2261.964999997872},{""relative-x"":0.61328125,""relative-y"":0.54125,""elapse-time"":2352.825000001758},{""relative-x"":0.84921875,""relative-y"":0.42625,""elapse-time"":2428.3749999958673},{""relative-x"":0.18359375,""relative-y"":-0.35875,""elapse-time"":2501.714999998512},{""relative-x"":0.409375,""relative-y"":0.68875,""elapse-time"":2589.6799999973155},{""relative-x"":0.44765625,""relative-y"":1.25875,""elapse-time"":2669.479999996838},{""relative-x"":1.090625,""relative-y"":0.50625,""elapse-time"":2748.794999999518},{""relative-x"":0.1125,""relative-y"":-0.0975,""elapse-time"":2829.9299999998766},{""relative-x"":0.89453125,""relative-y"":0.25375,""elapse-time"":2909.554999998363},{""relative-x"":0.78671875,""relative-y"":-0.43,""elapse-time"":3009.539999999106},{""relative-x"":1.03046875,""relative-y"":0.84625,""elapse-time"":3099.790000000212},{""relative-x"":1.09375,""relative-y"":0.81,""elapse-time"":3180.484999997134},{""relative-x"":0.65625,""relative-y"":0.79875,""elapse-time"":3259.1749999992317},{""relative-x"":0.640625,""relative-y"":0.395,""elapse-time"":3349.9700000029407},{""relative-x"":0.24453125,""relative-y"":-0.22125,""elapse-time"":3427.3249999969266},{""relative-x"":0.94140625,""relative-y"":0.6075,""elapse-time"":3512.940000000526},{""relative-x"":1.08984375,""relative-y"":0.61,""elapse-time"":3593.9950000029057},{""relative-x"":0.7703125,""relative-y"":0.0575,""elapse-time"":3671.3249999957043},{""relative-x"":0.58515625,""relative-y"":0.065,""elapse-time"":3744.5349999979953},{""relative-x"":0.796875,""relative-y"":0.38375,""elapse-time"":3820.4699999987497},{""relative-x"":0.69453125,""relative-y"":0.36,""elapse-time"":3890.3799999970943},{""relative-x"":0.61640625,""relative-y"":0.28375,""elapse-time"":3971.1200000019744},{""relative-x"":0.8515625,""relative-y"":0.14125,""elapse-time"":4052.4900000018533},{""relative-x"":0.76328125,""relative-y"":0.6075,""elapse-time"":4143.624999996973},{""relative-x"":0.56953125,""relative-y"":0.5325,""elapse-time"":4221.655000001192},{""relative-x"":0.76875,""relative-y"":0.14,""elapse-time"":4301.859999999579},{""relative-x"":0.73984375,""relative-y"":1.28125,""elapse-time"":4386.174999999639},{""relative-x"":0.6453125,""relative-y"":0.50875,""elapse-time"":4470.255000000179},{""relative-x"":0.76953125,""relative-y"":0.17375,""elapse-time"":4554.81499999587},{""relative-x"":0.571875,""relative-y"":0.55375,""elapse-time"":4642.3649999997}]}","2021-01-14 11:21:39",,"Mozilla/5.0 (Macintosh; Intel Mac OS X 10_13_6) AppleWebKit/537.36 (KHTML, like Gecko) Chrome/87.0.4280.141 Safari/537.36",Macintosh,Chrome,87.0.4280.141,"OS X",10_13_6
18,1,null,"""","""","""","""",html-keyboard-response,32,81639,0.0-12.0-2.0-0.9,297,0,0,"Integrierte iSight-Kamera (05ac:8507)",30.000030517578125,0.0020833333333333333,480,640,"""",null,"""","""","""","""","""","""","2021-01-14 11:21:39",,"Mozilla/5.0 (Macintosh; Intel Mac OS X 10_13_6) AppleWebKit/537.36 (KHTML, like Gecko) Chrome/87.0.4280.141 Safari/537.36",Macintosh,Chrome,87.0.4280.141,"OS X",10_13_6
18,1,"""","""","""",1280,800,eyetracking-calibration,33,85940,0.0-12.0-2.0-1.9,297,0,0,"Integrierte iSight-Kamera (05ac:8507)",30.000030517578125,0.0020833333333333333,480,640,"""","""","""",0.5,0.5,0,0,"{""history"":[{""relative-x"":0.5359375,""relative-y"":0.125,""elapse-time"":84.88000000215834},{""relative-x"":0.88828125,""relative-y"":0.0375,""elapse-time"":157.80999999697087},{""relative-x"":0.72734375,""relative-y"":-0.085,""elapse-time"":232.02999999921303},{""relative-x"":0.8609375,""relative-y"":0.335,""elapse-time"":304.12000000069384},{""relative-x"":0.75078125,""relative-y"":0.54875,""elapse-time"":392.72499999788124},{""relative-x"":0.5359375,""relative-y"":-0.02625,""elapse-time"":529.3049999963841},{""relative-x"":0.5265625,""relative-y"":0.74625,""elapse-time"":618.0800000001909},{""relative-x"":0.83828125,""relative-y"":0.68875,""elapse-time"":704.1150000004563},{""relative-x"":0.625,""relative-y"":0.6325,""elapse-time"":795.3399999969406},{""relative-x"":0.48125,""relative-y"":0.62125,""elapse-time"":891.9850000020233},{""relative-x"":0.5640625,""relative-y"":0.41125,""elapse-time"":984.1000000014901},{""relative-x"":0.58046875,""relative-y"":0.4675,""elapse-time"":1071.1200000005192},{""relative-x"":0.36171875,""relative-y"":0.805,""elapse-time"":1151.6800000026706},{""relative-x"":0.47734375,""relative-y"":0.7975,""elapse-time"":1224.4900000005146},{""relative-x"":0.23671875,""relative-y"":0.5975,""elapse-time"":1293.0899999992107},{""relative-x"":0.434375,""relative-y"":0.79625,""elapse-time"":1367.9899999988265},{""relative-x"":0.25390625,""relative-y"":0.31,""elapse-time"":1447.4950000003446},{""relative-x"":0.5609375,""relative-y"":0.4575,""elapse-time"":1521.520000002056},{""relative-x"":0.52109375,""relative-y"":0.37875,""elapse-time"":1593.684999999823},{""relative-x"":0.5703125,""relative-y"":0.44625,""elapse-time"":1667.8049999973155},{""relative-x"":0.52734375,""relative-y"":0.66875,""elapse-time"":1751.6949999990175},{""relative-x"":0.57734375,""relative-y"":0.44125,""elapse-time"":1833.9249999989988},{""relative-x"":0.4015625,""relative-y"":0.22375,""elapse-time"":1923.6650000020745},{""relative-x"":0.43671875,""relative-y"":0.575,""elapse-time"":2003.035000001546},{""relative-x"":0.5828125,""relative-y"":0.525,""elapse-time"":2090.810000001511},{""relative-x"":0.5984375,""relative-y"":0.55625,""elapse-time"":2178.124999998545},{""relative-x"":0.371875,""relative-y"":0.325,""elapse-time"":2263.65000000078},{""relative-x"":0.48125,""relative-y"":-0.04375,""elapse-time"":2353.7749999959487},{""relative-x"":0.4671875,""relative-y"":0.24,""elapse-time"":2448.629999998957},{""relative-x"":0.78046875,""relative-y"":0.02,""elapse-time"":2530.655000002298},{""relative-x"":0.73046875,""relative-y"":-0.3225,""elapse-time"":2619.429999998829},{""relative-x"":0.46171875,""relative-y"":-0.18625,""elapse-time"":2706.644999998389},{""relative-x"":0.82109375,""relative-y"":0.30125,""elapse-time"":2791.6949999998906},{""relative-x"":0.3796875,""relative-y"":0.305,""elapse-time"":2884.6599999960745},{""relative-x"":0.48203125,""relative-y"":0.0975,""elapse-time"":2979.715000001306},{""relative-x"":0.72265625,""relative-y"":0.2975,""elapse-time"":3064.214999998512},{""relative-x"":0.3640625,""relative-y"":0.5625,""elapse-time"":3150.9549999973387},{""relative-x"":0.575,""relative-y"":0.205,""elapse-time"":3237.954999996873},{""relative-x"":0.5265625,""relative-y"":0.425,""elapse-time"":3327.5399999984074},{""relative-x"":0.33125,""relative-y"":0.31375,""elapse-time"":3422.4749999993946},{""relative-x"":0.34375,""relative-y"":0.39,""elapse-time"":3514.5899999988615},{""relative-x"":0.37265625,""relative-y"":0.505,""elapse-time"":3597.3200000007637},{""relative-x"":0.6515625,""relative-y"":0.52125,""elapse-time"":3689.0300000013667},{""relative-x"":0.6015625,""relative-y"":0.52875,""elapse-time"":3777.6000000012573},{""relative-x"":0.64765625,""relative-y"":0.36875,""elapse-time"":3861.1949999976787},{""relative-x"":0.4921875,""relative-y"":0.325,""elapse-time"":3945.869999995921},{""relative-x"":0.36640625,""relative-y"":0.33875,""elapse-time"":4040.64500000095},{""relative-x"":0.603125,""relative-y"":0.51125,""elapse-time"":4130.68000000203},{""relative-x"":0.4890625,""relative-y"":0.28125,""elapse-time"":4217.055000000983},{""relative-x"":0.46328125,""relative-y"":0.4675,""elapse-time"":4295.915000002424}]}","2021-01-14 11:21:39",,"Mozilla/5.0 (Macintosh; Intel Mac OS X 10_13_6) AppleWebKit/537.36 (KHTML, like Gecko) Chrome/87.0.4280.141 Safari/537.36",Macintosh,Chrome,87.0.4280.141,"OS X",10_13_6
18,1,null,"""","""","""","""",html-keyboard-response,34,87445,0.0-12.0-2.0-0.10,297,0,0,"Integrierte iSight-Kamera (05ac:8507)",30.000030517578125,0.0020833333333333333,480,640,"""",null,"""","""","""","""","""","""","2021-01-14 11:21:39",,"Mozilla/5.0 (Macintosh; Intel Mac OS X 10_13_6) AppleWebKit/537.36 (KHTML, like Gecko) Chrome/87.0.4280.141 Safari/537.36",Macintosh,Chrome,87.0.4280.141,"OS X",10_13_6
18,1,"""","""","""",1280,800,eyetracking-calibration,35,94798,0.0-12.0-2.0-1.10,297,0,0,"Integrierte iSight-Kamera (05ac:8507)",30.000030517578125,0.0020833333333333333,480,640,"""","""","""",0.5,0.8,0,0,"{""history"":[{""relative-x"":0.4078125,""relative-y"":0.81375,""elapse-time"":89.93999999802327},{""relative-x"":0.396875,""relative-y"":0.75625,""elapse-time"":160.75499999715248},{""relative-x"":0.46484375,""relative-y"":0.88,""elapse-time"":236.42999999719905},{""relative-x"":0.828125,""relative-y"":0.2475,""elapse-time"":310.49499999789987},{""relative-x"":0.72265625,""relative-y"":0.35375,""elapse-time"":390.8999999985099},{""relative-x"":0.49140625,""relative-y"":0.74875,""elapse-time"":473.64999999990687},{""relative-x"":0.47890625,""relative-y"":0.46,""elapse-time"":546.0299999976996},{""relative-x"":0.39140625,""relative-y"":0.52,""elapse-time"":636.2799999988056},{""relative-x"":0.5234375,""relative-y"":0.6175,""elapse-time"":766.5349999952014},{""relative-x"":0.48359375,""relative-y"":1.0125,""elapse-time"":851.3400000010733},{""relative-x"":0.4140625,""relative-y"":0.695,""elapse-time"":926.8499999961932},{""relative-x"":0.40390625,""relative-y"":0.555,""elapse-time"":999.8549999945681},{""relative-x"":0.5265625,""relative-y"":0.465,""elapse-time"":1084.2950000005658},{""relative-x"":0.3796875,""relative-y"":0.91625,""elapse-time"":1171.3749999980791},{""relative-x"":0.70625,""relative-y"":0.8925,""elapse-time"":1251.2099999948987},{""relative-x"":0.54140625,""relative-y"":0.795,""elapse-time"":1334.4149999975343},{""relative-x"":0.44609375,""relative-y"":0.63375,""elapse-time"":1417.8800000008778},{""relative-x"":0.596875,""relative-y"":0.625,""elapse-time"":1498.7499999988358},{""relative-x"":0.5734375,""relative-y"":0.54875,""elapse-time"":1591.1100000012084},{""relative-x"":0.321875,""relative-y"":0.8025,""elapse-time"":1686.9949999963865},{""relative-x"":0.57734375,""relative-y"":0.645,""elapse-time"":1771.3699999949313},{""relative-x"":0.440625,""relative-y"":1.0325,""elapse-time"":1858.0549999969662},{""relative-x"":0.38984375,""relative-y"":0.9575,""elapse-time"":1934.5049999974435},{""relative-x"":0.6203125,""relative-y"":0.885,""elapse-time"":2017.520000001241},{""relative-x"":0.58046875,""relative-y"":0.94625,""elapse-time"":2099.1349999967497},{""relative-x"":0.51796875,""relative-y"":1.065,""elapse-time"":2183.789999995497},{""relative-x"":0.48828125,""relative-y"":0.65125,""elapse-time"":2265.5649999942398},{""relative-x"":0.48515625,""relative-y"":0.95625,""elapse-time"":2359.635000000708},{""relative-x"":0.47734375,""relative-y"":0.81875,""elapse-time"":2445.6299999947078},{""relative-x"":0.54296875,""relative-y"":0.84625,""elapse-time"":2525.8800000010524},{""relative-x"":0.46328125,""relative-y"":0.9675,""elapse-time"":2612.600000000384},{""relative-x"":0.57109375,""relative-y"":0.86,""elapse-time"":2701.7399999967893},{""relative-x"":0.7421875,""relative-y"":0.9125,""elapse-time"":2786.86999999627},{""relative-x"":0.75625,""relative-y"":0.6275,""elapse-time"":2881.249999998545},{""relative-x"":0.45234375,""relative-y"":0.8,""elapse-time"":2968.560000001162},{""relative-x"":0.60625,""relative-y"":0.575,""elapse-time"":3047.76000000129},{""relative-x"":0.43828125,""relative-y"":0.82125,""elapse-time"":3127.325000001292},{""relative-x"":0.6828125,""relative-y"":1.09,""elapse-time"":3204.2899999942165},{""relative-x"":0.84609375,""relative-y"":0.60625,""elapse-time"":3282.0250000004307},{""relative-x"":0.51875,""relative-y"":0.4275,""elapse-time"":3363.5099999955855},{""relative-x"":0.59609375,""relative-y"":0.695,""elapse-time"":3441.9599999964703},{""relative-x"":0.55078125,""relative-y"":0.865,""elapse-time"":3518.739999999525},{""relative-x"":0.6234375,""relative-y"":0.59125,""elapse-time"":3602.585000000545},{""relative-x"":0.621875,""relative-y"":0.45125,""elapse-time"":3673.4399999986636},{""relative-x"":0.225,""relative-y"":0.77375,""elapse-time"":3739.8299999986193},{""relative-x"":0.3640625,""relative-y"":0.76125,""elapse-time"":3812.904999998864},{""relative-x"":0.47265625,""relative-y"":0.55375,""elapse-time"":3881.869999997434},{""relative-x"":0.5796875,""relative-y"":0.625,""elapse-time"":3953.4099999946193},{""relative-x"":0.6703125,""relative-y"":0.45125,""elapse-time"":4027.3400000005495},{""relative-x"":0.75078125,""relative-y"":0.36625,""elapse-time"":4097.73999999743},{""relative-x"":0.57265625,""relative-y"":0.515,""elapse-time"":4164.0299999999115},{""relative-x"":0.39765625,""relative-y"":0.62875,""elapse-time"":4236.559999997553},{""relative-x"":0.6921875,""relative-y"":0.2325,""elapse-time"":4306.2449999997625},{""relative-x"":0.59765625,""relative-y"":0.625,""elapse-time"":4375.755000000936},{""relative-x"":0.50390625,""relative-y"":0.56125,""elapse-time"":4449.974999995902},{""relative-x"":0.4515625,""relative-y"":0.6575,""elapse-time"":4521.51999999478},{""relative-x"":0.65703125,""relative-y"":0.43875,""elapse-time"":4587.989999999991},{""relative-x"":0.57421875,""relative-y"":0.42375,""elapse-time"":4663.464999997814},{""relative-x"":0.6078125,""relative-y"":0.46125,""elapse-time"":4733.540000001085},{""relative-x"":0.55078125,""relative-y"":0.69625,""elapse-time"":4802.859999996144},{""relative-x"":0.54921875,""relative-y"":0.57625,""elapse-time"":4879.204999997455},{""relative-x"":0.6125,""relative-y"":0.76875,""elapse-time"":4959.449999994831},{""relative-x"":0.628125,""relative-y"":0.69875,""elapse-time"":5038.065000000643},{""relative-x"":0.4,""relative-y"":0.92375,""elapse-time"":5126.344999996945},{""relative-x"":0.31484375,""relative-y"":0.64375,""elapse-time"":5247.349999997823},{""relative-x"":0.60078125,""relative-y"":0.82625,""elapse-time"":5322.554999998829},{""relative-x"":0.61875,""relative-y"":0.905,""elapse-time"":5396.00999999675},{""relative-x"":0.603125,""relative-y"":0.92875,""elapse-time"":5470.014999998966},{""relative-x"":0.4828125,""relative-y"":1.0275,""elapse-time"":5555.454999994254},{""relative-x"":0.5625,""relative-y"":0.65625,""elapse-time"":5632.299999997485},{""relative-x"":0.54765625,""relative-y"":0.80375,""elapse-time"":5719.099999994796},{""relative-x"":0.60078125,""relative-y"":0.79375,""elapse-time"":5799.97000000003},{""relative-x"":0.47578125,""relative-y"":0.86,""elapse-time"":5877.069999995001},{""relative-x"":0.5109375,""relative-y"":1.01875,""elapse-time"":5956.030000001192},{""relative-x"":0.4921875,""relative-y"":0.84625,""elapse-time"":6038.94500000024},{""relative-x"":0.51484375,""relative-y"":0.595,""elapse-time"":6119.480000001204},{""relative-x"":0.4390625,""relative-y"":0.99875,""elapse-time"":6194.944999995641},{""relative-x"":0.69609375,""relative-y"":0.86,""elapse-time"":6273.659999998927},{""relative-x"":1.0015625,""relative-y"":0.495,""elapse-time"":6351.544999997714},{""relative-x"":0.5046875,""relative-y"":0.48625,""elapse-time"":6429.029999999329},{""relative-x"":0.70859375,""relative-y"":1.78125,""elapse-time"":6516.329999998561},{""relative-x"":-0.58046875,""relative-y"":2.84,""elapse-time"":6598.224999994272},{""relative-x"":0.57890625,""relative-y"":1.1275,""elapse-time"":6676.879999999073},{""relative-x"":2.0375,""relative-y"":0.79375,""elapse-time"":6769.215000000258},{""relative-x"":1.559375,""relative-y"":-0.10375,""elapse-time"":6845.04499999457},{""relative-x"":0.59296875,""relative-y"":0.82375,""elapse-time"":6926.274999997986},{""relative-x"":0.6296875,""relative-y"":0.7825,""elapse-time"":7014.689999996335},{""relative-x"":0.52578125,""relative-y"":0.71625,""elapse-time"":7109.529999994265},{""relative-x"":0.55546875,""relative-y"":0.8575,""elapse-time"":7185.059999996156},{""relative-x"":0.46875,""relative-y"":0.72,""elapse-time"":7269.06500000041},{""relative-x"":0.61328125,""relative-y"":0.75,""elapse-time"":7347.429999994347}]}","2021-01-14 11:21:39",,"Mozilla/5.0 (Macintosh; Intel Mac OS X 10_13_6) AppleWebKit/537.36 (KHTML, like Gecko) Chrome/87.0.4280.141 Safari/537.36",Macintosh,Chrome,87.0.4280.141,"OS X",10_13_6
18,1,null,"""","""","""","""",html-keyboard-response,36,96300,0.0-12.0-2.0-0.11,297,0,0,"Integrierte iSight-Kamera (05ac:8507)",30.000030517578125,0.0020833333333333333,480,640,"""",null,"""","""","""","""","""","""","2021-01-14 11:21:39",,"Mozilla/5.0 (Macintosh; Intel Mac OS X 10_13_6) AppleWebKit/537.36 (KHTML, like Gecko) Chrome/87.0.4280.141 Safari/537.36",Macintosh,Chrome,87.0.4280.141,"OS X",10_13_6
18,1,"""","""","""",1280,800,eyetracking-calibration,37,101705,0.0-12.0-2.0-1.11,297,0,0,"Integrierte iSight-Kamera (05ac:8507)",30.000030517578125,0.0020833333333333333,480,640,"""","""","""",0.8,0.5,0,0,"{""history"":[{""relative-x"":-0.04921875,""relative-y"":0.0975,""elapse-time"":95.30000000086147},{""relative-x"":0.6578125,""relative-y"":0.1175,""elapse-time"":176.87999999907333},{""relative-x"":0.85,""relative-y"":0.8125,""elapse-time"":253.23999999818625},{""relative-x"":0.44765625,""relative-y"":0.7,""elapse-time"":332.19000000099186},{""relative-x"":0.646875,""relative-y"":0.56125,""elapse-time"":416.4999999993597},{""relative-x"":0.79375,""relative-y"":0.4775,""elapse-time"":502.00999999651685},{""relative-x"":0.75390625,""relative-y"":0.60125,""elapse-time"":594.3750000005821},{""relative-x"":0.83046875,""relative-y"":0.4525,""elapse-time"":686.2400000027264},{""relative-x"":0.74609375,""relative-y"":0.535,""elapse-time"":772.5649999993038},{""relative-x"":0.76484375,""relative-y"":0.67375,""elapse-time"":860.5099999986123},{""relative-x"":0.8375,""relative-y"":0.48875,""elapse-time"":947.6599999979953},{""relative-x"":0.7109375,""relative-y"":0.4625,""elapse-time"":1028.4800000008545},{""relative-x"":0.82890625,""relative-y"":0.4325,""elapse-time"":1110.8600000006845},{""relative-x"":0.875,""relative-y"":0.525,""elapse-time"":1188.2150000019465},{""relative-x"":0.84375,""relative-y"":0.64875,""elapse-time"":1266.3049999973737},{""relative-x"":0.75078125,""relative-y"":0.72125,""elapse-time"":1342.5799999968149},{""relative-x"":0.6875,""relative-y"":0.5525,""elapse-time"":1439.6950000009383},{""relative-x"":0.775,""relative-y"":0.40375,""elapse-time"":1521.5049999969779},{""relative-x"":0.76328125,""relative-y"":0.40375,""elapse-time"":1597.524999997404},{""relative-x"":0.72265625,""relative-y"":0.49375,""elapse-time"":1690.4649999996764},{""relative-x"":0.86796875,""relative-y"":0.59875,""elapse-time"":1790.9099999960745},{""relative-x"":0.9828125,""relative-y"":0.43375,""elapse-time"":1874.230000001262},{""relative-x"":0.83984375,""relative-y"":0.65625,""elapse-time"":1958.4200000026613},{""relative-x"":0.821875,""relative-y"":0.13375,""elapse-time"":2031.9799999997485},{""relative-x"":0.97109375,""relative-y"":0.60375,""elapse-time"":2130.429999997432},{""relative-x"":1.0265625,""relative-y"":0.39875,""elapse-time"":2213.0550000001676},{""relative-x"":0.87890625,""relative-y"":0.67,""elapse-time"":2304.1599999996834},{""relative-x"":0.88203125,""relative-y"":0.58,""elapse-time"":2431.7099999971106},{""relative-x"":0.925,""relative-y"":0.48875,""elapse-time"":2531.5300000002026},{""relative-x"":0.91171875,""relative-y"":0.415,""elapse-time"":2625.659999997879},{""relative-x"":0.82890625,""relative-y"":0.53,""elapse-time"":2715.0299999993877},{""relative-x"":0.85234375,""relative-y"":0.63625,""elapse-time"":2808.355000001029},{""relative-x"":0.87109375,""relative-y"":0.53625,""elapse-time"":2889.374999998836},{""relative-x"":0.79609375,""relative-y"":0.48375,""elapse-time"":2984.389999997802},{""relative-x"":0.78984375,""relative-y"":0.73875,""elapse-time"":3076.0000000009313},{""relative-x"":0.8046875,""relative-y"":0.88375,""elapse-time"":3166.960000002291},{""relative-x"":0.99296875,""relative-y"":0.95625,""elapse-time"":3254.059999999299},{""relative-x"":0.7546875,""relative-y"":0.58375,""elapse-time"":3349.0249999958905},{""relative-x"":0.6078125,""relative-y"":0.95625,""elapse-time"":3436.184999998659},{""relative-x"":0.75234375,""relative-y"":0.65125,""elapse-time"":3525.4449999993085},{""relative-x"":0.55859375,""relative-y"":0.71375,""elapse-time"":3610.144999998738},{""relative-x"":0.75078125,""relative-y"":0.4975,""elapse-time"":3695.0749999959953},{""relative-x"":0.7203125,""relative-y"":0.33125,""elapse-time"":3788.634999997157},{""relative-x"":0.77421875,""relative-y"":0.4375,""elapse-time"":3881.249999998545},{""relative-x"":0.7140625,""relative-y"":0.61,""elapse-time"":3971.445000002859},{""relative-x"":0.740625,""relative-y"":0.78875,""elapse-time"":4061.374999997497},{""relative-x"":0.646875,""relative-y"":0.775,""elapse-time"":4159.874999997555},{""relative-x"":0.75078125,""relative-y"":0.815,""elapse-time"":4256.329999996524},{""relative-x"":0.8953125,""relative-y"":0.54,""elapse-time"":4334.979999999632},{""relative-x"":0.86875,""relative-y"":0.54875,""elapse-time"":4416.035000002012},{""relative-x"":0.690625,""relative-y"":0.92125,""elapse-time"":4492.740000001504},{""relative-x"":0.846875,""relative-y"":0.42125,""elapse-time"":4569.324999996752},{""relative-x"":0.68359375,""relative-y"":0.775,""elapse-time"":4650.22499999759},{""relative-x"":0.82578125,""relative-y"":0.4475,""elapse-time"":4735.370000002149},{""relative-x"":0.75234375,""relative-y"":0.6275,""elapse-time"":4820.314999997208},{""relative-x"":0.6625,""relative-y"":0.75625,""elapse-time"":4902.844999996887},{""relative-x"":0.671875,""relative-y"":0.6025,""elapse-time"":4984.199999998964}]}","2021-01-14 11:21:39",,"Mozilla/5.0 (Macintosh; Intel Mac OS X 10_13_6) AppleWebKit/537.36 (KHTML, like Gecko) Chrome/87.0.4280.141 Safari/537.36",Macintosh,Chrome,87.0.4280.141,"OS X",10_13_6
18,1,null,"<div style=""font-size:30px;""><p><strong>30%</strong><br><br>Calibration complete</p></div>","""","""","""",html-keyboard-response,38,103208,0.0-12.0-2.0-0.12,297,0,0,"Integrierte iSight-Kamera (05ac:8507)",30.000030517578125,0.0020833333333333333,480,640,"""",null,"""","""","""","""","""","""","2021-01-14 11:21:39",,"Mozilla/5.0 (Macintosh; Intel Mac OS X 10_13_6) AppleWebKit/537.36 (KHTML, like Gecko) Chrome/87.0.4280.141 Safari/537.36",Macintosh,Chrome,87.0.4280.141,"OS X",10_13_6
18,1,"""","""","""",1280,800,eyetracking-calibration,39,107726,0.0-12.0-2.0-1.12,297,0,0,"Integrierte iSight-Kamera (05ac:8507)",30.000030517578125,0.0020833333333333333,480,640,"""","""","""",0.35,0.65,0,0,"{""history"":[{""relative-x"":0.74375,""relative-y"":-0.24,""elapse-time"":90.47000000282424},{""relative-x"":0.71171875,""relative-y"":0.48375,""elapse-time"":170.2000000004773},{""relative-x"":0.53359375,""relative-y"":1.0325,""elapse-time"":252.1100000012666},{""relative-x"":0.4078125,""relative-y"":0.93875,""elapse-time"":321.36999999784166},{""relative-x"":0.50078125,""relative-y"":0.93875,""elapse-time"":398.97000000200933},{""relative-x"":0.4265625,""relative-y"":0.965,""elapse-time"":484.0299999996205},{""relative-x"":0.4296875,""relative-y"":0.81125,""elapse-time"":580.9749999971245},{""relative-x"":0.478125,""relative-y"":0.68125,""elapse-time"":671.0749999983818},{""relative-x"":0.52265625,""relative-y"":0.57125,""elapse-time"":757.7999999994063},{""relative-x"":0.44765625,""relative-y"":0.63125,""elapse-time"":839.814999999362},{""relative-x"":0.40078125,""relative-y"":0.74625,""elapse-time"":918.8849999991362},{""relative-x"":0.346875,""relative-y"":0.71875,""elapse-time"":1006.7100000014761},{""relative-x"":0.46875,""relative-y"":0.6125,""elapse-time"":1087.8000000011525},{""relative-x"":0.53046875,""relative-y"":0.7625,""elapse-time"":1175.4149999978836},{""relative-x"":0.44296875,""relative-y"":0.77625,""elapse-time"":1270.8249999996042},{""relative-x"":0.4203125,""relative-y"":0.68625,""elapse-time"":1370.7050000011805},{""relative-x"":0.490625,""relative-y"":0.7025,""elapse-time"":1447.9599999976926},{""relative-x"":0.4125,""relative-y"":0.67625,""elapse-time"":1551.8599999995786},{""relative-x"":0.40546875,""relative-y"":0.7875,""elapse-time"":1661.3199999992503},{""relative-x"":0.3640625,""relative-y"":0.8825,""elapse-time"":1742.6199999972596},{""relative-x"":0.44453125,""relative-y"":0.94625,""elapse-time"":1827.8399999981048},{""relative-x"":0.43359375,""relative-y"":0.7525,""elapse-time"":1924.9150000032387},{""relative-x"":0.35546875,""relative-y"":0.7275,""elapse-time"":2013.4550000002491},{""relative-x"":0.403125,""relative-y"":0.74875,""elapse-time"":2109.1299999970943},{""relative-x"":0.3765625,""relative-y"":0.63625,""elapse-time"":2243.9850000009756},{""relative-x"":0.4375,""relative-y"":0.3925,""elapse-time"":2340.535000003001},{""relative-x"":0.45234375,""relative-y"":0.86125,""elapse-time"":2431.6150000013295},{""relative-x"":0.3609375,""relative-y"":0.7725,""elapse-time"":2518.595000001369},{""relative-x"":0.40234375,""relative-y"":0.89875,""elapse-time"":2602.7150000008987},{""relative-x"":0.48125,""relative-y"":0.63625,""elapse-time"":2677.255000002333},{""relative-x"":0.41640625,""relative-y"":0.93875,""elapse-time"":2753.8150000036694},{""relative-x"":0.340625,""relative-y"":0.7675,""elapse-time"":2841.594999998051},{""relative-x"":0.40546875,""relative-y"":0.7225,""elapse-time"":2929.5449999990524},{""relative-x"":0.34296875,""relative-y"":0.63625,""elapse-time"":3027.6599999997416},{""relative-x"":0.43515625,""relative-y"":0.8675,""elapse-time"":3102.7800000010757},{""relative-x"":0.45390625,""relative-y"":0.73375,""elapse-time"":3189.3199999976787},{""relative-x"":0.3875,""relative-y"":0.65875,""elapse-time"":3289.924999997311},{""relative-x"":0.31875,""relative-y"":0.76875,""elapse-time"":3373.279999999795},{""relative-x"":0.2890625,""relative-y"":0.73,""elapse-time"":3471.740000000864},{""relative-x"":0.45546875,""relative-y"":0.92375,""elapse-time"":3566.095000001951},{""relative-x"":0.34921875,""relative-y"":0.61125,""elapse-time"":3649.120000001858},{""relative-x"":0.209375,""relative-y"":0.74625,""elapse-time"":3719.7349999987637},{""relative-x"":0.3984375,""relative-y"":0.6175,""elapse-time"":3810.1450000031036},{""relative-x"":0.321875,""relative-y"":0.85125,""elapse-time"":3896.054999997432},{""relative-x"":0.33828125,""relative-y"":0.6275,""elapse-time"":3972.060000000056},{""relative-x"":0.378125,""relative-y"":0.68375,""elapse-time"":4058.2199999989825},{""relative-x"":0.37890625,""relative-y"":0.64,""elapse-time"":4146.760000003269},{""relative-x"":0.40390625,""relative-y"":0.59,""elapse-time"":4228.484999999637},{""relative-x"":0.30703125,""relative-y"":0.84625,""elapse-time"":4318.274999997811},{""relative-x"":0.35,""relative-y"":0.68625,""elapse-time"":4409.635000003618},{""relative-x"":0.4390625,""relative-y"":0.65375,""elapse-time"":4502.019999999902}]}","2021-01-14 11:21:39",,"Mozilla/5.0 (Macintosh; Intel Mac OS X 10_13_6) AppleWebKit/537.36 (KHTML, like Gecko) Chrome/87.0.4280.141 Safari/537.36",Macintosh,Chrome,87.0.4280.141,"OS X",10_13_6
18,1,null,"""","""","""","""",html-keyboard-response,40,109229,0.0-12.0-2.0-0.13,297,0,0,"Integrierte iSight-Kamera (05ac:8507)",30.000030517578125,0.0020833333333333333,480,640,"""",null,"""","""","""","""","""","""","2021-01-14 11:21:39",,"Mozilla/5.0 (Macintosh; Intel Mac OS X 10_13_6) AppleWebKit/537.36 (KHTML, like Gecko) Chrome/87.0.4280.141 Safari/537.36",Macintosh,Chrome,87.0.4280.141,"OS X",10_13_6
18,1,"""","""","""",1280,800,eyetracking-calibration,41,113237,0.0-12.0-2.0-1.13,297,0,0,"Integrierte iSight-Kamera (05ac:8507)",30.000030517578125,0.0020833333333333333,480,640,"""","""","""",0.2,0.5,0,0,"{""history"":[{""relative-x"":0.4546875,""relative-y"":1.105,""elapse-time"":112.95999999856576},{""relative-x"":0.3203125,""relative-y"":0.6375,""elapse-time"":203.3549999978277},{""relative-x"":0.4015625,""relative-y"":0.4975,""elapse-time"":289.32000000349944},{""relative-x"":0.40625,""relative-y"":0.36625,""elapse-time"":375.03499999729684},{""relative-x"":0.4578125,""relative-y"":0.42625,""elapse-time"":470.8450000034645},{""relative-x"":0.2546875,""relative-y"":0.635,""elapse-time"":571.4949999965029},{""relative-x"":0.1484375,""relative-y"":0.855,""elapse-time"":668.8900000008289},{""relative-x"":0.40546875,""relative-y"":0.4275,""elapse-time"":760.0450000027195},{""relative-x"":0.46328125,""relative-y"":0.54125,""elapse-time"":839.7049999985029},{""relative-x"":0.39140625,""relative-y"":0.47625,""elapse-time"":937.0599999965634},{""relative-x"":0.15078125,""relative-y"":0.76,""elapse-time"":1039.7799999991548},{""relative-x"":0.31953125,""relative-y"":0.3825,""elapse-time"":1134.3049999995856},{""relative-x"":0.2265625,""relative-y"":0.62375,""elapse-time"":1226.5199999965262},{""relative-x"":0.171875,""relative-y"":0.59875,""elapse-time"":1314.234999998007},{""relative-x"":0.3015625,""relative-y"":0.445,""elapse-time"":1404.8550000006799},{""relative-x"":0.13125,""relative-y"":0.70875,""elapse-time"":1507.9400000031455},{""relative-x"":0.27734375,""relative-y"":0.4775,""elapse-time"":1596.7149999996764},{""relative-x"":0.159375,""relative-y"":0.54875,""elapse-time"":1695.720000003348},{""relative-x"":0.20625,""relative-y"":0.60625,""elapse-time"":1788.684999999532},{""relative-x"":0.240625,""relative-y"":0.67125,""elapse-time"":1884.3599999963772},{""relative-x"":0.23046875,""relative-y"":0.625,""elapse-time"":1978.6699999967823},{""relative-x"":0.19453125,""relative-y"":0.455,""elapse-time"":2080.7849999982864},{""relative-x"":0.19921875,""relative-y"":0.485,""elapse-time"":2175.8649999974295},{""relative-x"":0.18125,""relative-y"":0.50875,""elapse-time"":2261.109999999462},{""relative-x"":0.14296875,""relative-y"":0.73125,""elapse-time"":2340.4949999967357},{""relative-x"":0.03828125,""relative-y"":0.68125,""elapse-time"":2428.8050000031944},{""relative-x"":0.3546875,""relative-y"":0.575,""elapse-time"":2513.8050000023213},{""relative-x"":0.1859375,""relative-y"":0.7525,""elapse-time"":2652.2150000018883},{""relative-x"":0.209375,""relative-y"":0.62875,""elapse-time"":2742.565000000468},{""relative-x"":0.16015625,""relative-y"":0.6225,""elapse-time"":2831.144999996468},{""relative-x"":0.25546875,""relative-y"":0.46,""elapse-time"":2917.9450000010547},{""relative-x"":0.22578125,""relative-y"":0.4725,""elapse-time"":3000.735000001441},{""relative-x"":0.21484375,""relative-y"":0.68375,""elapse-time"":3088.1850000005215},{""relative-x"":0.15625,""relative-y"":0.50875,""elapse-time"":3175.7399999987683},{""relative-x"":0.196875,""relative-y"":0.6,""elapse-time"":3270.895000001474},{""relative-x"":0.178125,""relative-y"":0.5375,""elapse-time"":3365.9649999972316},{""relative-x"":0.21171875,""relative-y"":0.685,""elapse-time"":3454.7850000017206},{""relative-x"":0.1921875,""relative-y"":0.74375,""elapse-time"":3549.605000000156},{""relative-x"":0.20390625,""relative-y"":0.56625,""elapse-time"":3639.889999998559},{""relative-x"":0.134375,""relative-y"":0.4775,""elapse-time"":3729.9150000035297},{""relative-x"":0.128125,""relative-y"":0.54875,""elapse-time"":3820.274999998219},{""relative-x"":0.20390625,""relative-y"":0.66125,""elapse-time"":3914.230000002135},{""relative-x"":0.2328125,""relative-y"":0.63625,""elapse-time"":4006.5949999989243}]}","2021-01-14 11:21:39",,"Mozilla/5.0 (Macintosh; Intel Mac OS X 10_13_6) AppleWebKit/537.36 (KHTML, like Gecko) Chrome/87.0.4280.141 Safari/537.36",Macintosh,Chrome,87.0.4280.141,"OS X",10_13_6
18,1,null,"""","""","""","""",html-keyboard-response,42,114748,0.0-12.0-2.0-0.14,297,0,0,"Integrierte iSight-Kamera (05ac:8507)",30.000030517578125,0.0020833333333333333,480,640,"""",null,"""","""","""","""","""","""","2021-01-14 11:21:39",,"Mozilla/5.0 (Macintosh; Intel Mac OS X 10_13_6) AppleWebKit/537.36 (KHTML, like Gecko) Chrome/87.0.4280.141 Safari/537.36",Macintosh,Chrome,87.0.4280.141,"OS X",10_13_6
18,1,"""","""","""",1280,800,eyetracking-calibration,43,119167,0.0-12.0-2.0-1.14,297,0,0,"Integrierte iSight-Kamera (05ac:8507)",30.000030517578125,0.0020833333333333333,480,640,"""","""","""",0.8,0.5,0,0,"{""history"":[{""relative-x"":0.603125,""relative-y"":0.36,""elapse-time"":108.34999999497086},{""relative-x"":0.5515625,""relative-y"":0.67,""elapse-time"":195.54999999672873},{""relative-x"":0.4203125,""relative-y"":0.44375,""elapse-time"":286.56499999488005},{""relative-x"":0.73125,""relative-y"":0.1975,""elapse-time"":365.29000000155065},{""relative-x"":0.7484375,""relative-y"":0.385,""elapse-time"":446.7000000004191},{""relative-x"":0.775,""relative-y"":0.55,""elapse-time"":533.1099999966682},{""relative-x"":0.684375,""relative-y"":0.23625,""elapse-time"":627.5150000001304},{""relative-x"":0.63515625,""relative-y"":0.39625,""elapse-time"":710.4299999991781},{""relative-x"":0.590625,""relative-y"":0.4525,""elapse-time"":796.0999999995693},{""relative-x"":0.534375,""relative-y"":0.495,""elapse-time"":889.3449999959557},{""relative-x"":0.7109375,""relative-y"":0.4975,""elapse-time"":988.4049999964191},{""relative-x"":0.67734375,""relative-y"":0.335,""elapse-time"":1088.804999999411},{""relative-x"":0.9375,""relative-y"":0.45375,""elapse-time"":1196.4650000008987},{""relative-x"":0.9140625,""relative-y"":0.52875,""elapse-time"":1334.8799999948824},{""relative-x"":0.790625,""relative-y"":0.4275,""elapse-time"":1433.8250000000698},{""relative-x"":0.88046875,""relative-y"":0.40375,""elapse-time"":1520.8950000014738},{""relative-x"":0.784375,""relative-y"":0.55625,""elapse-time"":1603.2950000007986},{""relative-x"":0.78359375,""relative-y"":0.5825,""elapse-time"":1689.9599999960628},{""relative-x"":0.83203125,""relative-y"":0.60875,""elapse-time"":1788.8549999988754},{""relative-x"":0.9,""relative-y"":0.6225,""elapse-time"":1872.6899999965099},{""relative-x"":0.85078125,""relative-y"":0.5875,""elapse-time"":1963.1650000010268},{""relative-x"":0.721875,""relative-y"":0.61,""elapse-time"":2063.849999998638},{""relative-x"":0.70390625,""relative-y"":0.5875,""elapse-time"":2183.599999996659},{""relative-x"":0.71953125,""relative-y"":0.56125,""elapse-time"":2291.319999996631},{""relative-x"":0.73828125,""relative-y"":0.43,""elapse-time"":2378.5099999950035},{""relative-x"":0.8453125,""relative-y"":0.53375,""elapse-time"":2480.3399999946123},{""relative-x"":0.7671875,""relative-y"":0.69875,""elapse-time"":2561.904999995022},{""relative-x"":0.75390625,""relative-y"":0.42375,""elapse-time"":2644.864999994752},{""relative-x"":0.865625,""relative-y"":0.34625,""elapse-time"":2740.8399999985704},{""relative-x"":0.9984375,""relative-y"":0.16375,""elapse-time"":2835.755000000063},{""relative-x"":0.95546875,""relative-y"":0.2725,""elapse-time"":2933.055000001332},{""relative-x"":0.90234375,""relative-y"":0.41375,""elapse-time"":3032.3050000006333},{""relative-x"":1.0265625,""relative-y"":0.1225,""elapse-time"":3125.6849999990663},{""relative-x"":0.91953125,""relative-y"":0.095,""elapse-time"":3225.094999994326},{""relative-x"":0.96875,""relative-y"":0.33125,""elapse-time"":3311.439999997674},{""relative-x"":0.840625,""relative-y"":0.3625,""elapse-time"":3406.764999999723},{""relative-x"":0.83984375,""relative-y"":0.3075,""elapse-time"":3556.1949999973876},{""relative-x"":0.8765625,""relative-y"":0.39,""elapse-time"":3640.094999995199},{""relative-x"":0.8828125,""relative-y"":0.5225,""elapse-time"":3734.9249999970198},{""relative-x"":0.85859375,""relative-y"":0.39625,""elapse-time"":3825.4149999993388},{""relative-x"":0.88046875,""relative-y"":0.48,""elapse-time"":3924.0999999965425},{""relative-x"":0.8265625,""relative-y"":0.64875,""elapse-time"":4018.355000000156},{""relative-x"":0.78125,""relative-y"":0.49625,""elapse-time"":4120.859999995446},{""relative-x"":0.76796875,""relative-y"":0.50375,""elapse-time"":4211.8049999990035},{""relative-x"":0.9234375,""relative-y"":0.6575,""elapse-time"":4308.339999995951},{""relative-x"":0.75703125,""relative-y"":0.56,""elapse-time"":4409.579999999551}]}","2021-01-14 11:21:39",,"Mozilla/5.0 (Macintosh; Intel Mac OS X 10_13_6) AppleWebKit/537.36 (KHTML, like Gecko) Chrome/87.0.4280.141 Safari/537.36",Macintosh,Chrome,87.0.4280.141,"OS X",10_13_6
18,1,null,"""","""","""","""",html-keyboard-response,44,120676,0.0-12.0-2.0-0.15,297,0,0,"Integrierte iSight-Kamera (05ac:8507)",30.000030517578125,0.0020833333333333333,480,640,"""",null,"""","""","""","""","""","""","2021-01-14 11:21:39",,"Mozilla/5.0 (Macintosh; Intel Mac OS X 10_13_6) AppleWebKit/537.36 (KHTML, like Gecko) Chrome/87.0.4280.141 Safari/537.36",Macintosh,Chrome,87.0.4280.141,"OS X",10_13_6
18,1,"""","""","""",1280,800,eyetracking-calibration,45,124352,0.0-12.0-2.0-1.15,297,0,0,"Integrierte iSight-Kamera (05ac:8507)",30.000030517578125,0.0020833333333333333,480,640,"""","""","""",0.5,0.2,0,0,"{""history"":[{""relative-x"":0.5,""relative-y"":0.66,""elapse-time"":112.51500000071246},{""relative-x"":0.5671875,""relative-y"":0.96125,""elapse-time"":206.0200000050827},{""relative-x"":0.2796875,""relative-y"":0.795,""elapse-time"":307.7049999992596},{""relative-x"":0.46640625,""relative-y"":0.62625,""elapse-time"":414.7999999986496},{""relative-x"":0.5328125,""relative-y"":0.5175,""elapse-time"":517.5799999997253},{""relative-x"":0.425,""relative-y"":0.1625,""elapse-time"":608.8100000051782},{""relative-x"":0.5625,""relative-y"":0.12625,""elapse-time"":700.4999999990105},{""relative-x"":0.3921875,""relative-y"":0.41625,""elapse-time"":795.590000001539},{""relative-x"":0.3625,""relative-y"":0.15125,""elapse-time"":890.0800000046729},{""relative-x"":0.40546875,""relative-y"":0.43875,""elapse-time"":976.6799999997602},{""relative-x"":0.4453125,""relative-y"":0.3825,""elapse-time"":1066.915000003064},{""relative-x"":0.5140625,""relative-y"":0.36875,""elapse-time"":1169.7300000014366},{""relative-x"":0.4859375,""relative-y"":0.5675,""elapse-time"":1264.8899999985588},{""relative-x"":0.46015625,""relative-y"":0.20875,""elapse-time"":1363.0600000033155},{""relative-x"":0.42421875,""relative-y"":0.1875,""elapse-time"":1457.7849999986938},{""relative-x"":0.54453125,""relative-y"":0.36625,""elapse-time"":1560.6400000033318},{""relative-x"":0.53671875,""relative-y"":0.31,""elapse-time"":1651.9600000028731},{""relative-x"":0.53359375,""relative-y"":0.37,""elapse-time"":1743.6349999989034},{""relative-x"":0.4796875,""relative-y"":0.1175,""elapse-time"":1842.595000001893},{""relative-x"":0.43203125,""relative-y"":0.27,""elapse-time"":1930.1800000030198},{""relative-x"":0.50390625,""relative-y"":-0.00625,""elapse-time"":2025.470000000496},{""relative-x"":0.4640625,""relative-y"":0.285,""elapse-time"":2118.46499999956},{""relative-x"":0.5203125,""relative-y"":0.11875,""elapse-time"":2213.625000003958},{""relative-x"":0.48203125,""relative-y"":0.5625,""elapse-time"":2307.5300000054995},{""relative-x"":0.40390625,""relative-y"":0.4875,""elapse-time"":2416.7100000049686},{""relative-x"":0.40859375,""relative-y"":0.39375,""elapse-time"":2513.120000003255},{""relative-x"":0.396875,""relative-y"":0.07625,""elapse-time"":2616.614999999001},{""relative-x"":0.58828125,""relative-y"":0.27625,""elapse-time"":2719.3850000039674},{""relative-x"":0.64765625,""relative-y"":0.25375,""elapse-time"":2819.9400000012247},{""relative-x"":0.5296875,""relative-y"":0.1,""elapse-time"":2922.904999999446},{""relative-x"":0.5984375,""relative-y"":0.4775,""elapse-time"":3016.6150000004563},{""relative-x"":0.5265625,""relative-y"":0.42875,""elapse-time"":3118.175000003248},{""relative-x"":0.459375,""relative-y"":0.3125,""elapse-time"":3213.325000004261},{""relative-x"":0.44296875,""relative-y"":0.62125,""elapse-time"":3302.335000000312},{""relative-x"":0.5265625,""relative-y"":0.3275,""elapse-time"":3399.150000004738},{""relative-x"":0.5046875,""relative-y"":0.2325,""elapse-time"":3496.4749999999185},{""relative-x"":0.60703125,""relative-y"":0.36875,""elapse-time"":3586.5350000021863},{""relative-x"":0.53046875,""relative-y"":0.675,""elapse-time"":3674.090000000433}]}","2021-01-14 11:21:39",,"Mozilla/5.0 (Macintosh; Intel Mac OS X 10_13_6) AppleWebKit/537.36 (KHTML, like Gecko) Chrome/87.0.4280.141 Safari/537.36",Macintosh,Chrome,87.0.4280.141,"OS X",10_13_6
18,1,null,"""","""","""","""",html-keyboard-response,46,125860,0.0-12.0-2.0-0.16,297,0,0,"Integrierte iSight-Kamera (05ac:8507)",30.000030517578125,0.0020833333333333333,480,640,"""",null,"""","""","""","""","""","""","2021-01-14 11:21:39",,"Mozilla/5.0 (Macintosh; Intel Mac OS X 10_13_6) AppleWebKit/537.36 (KHTML, like Gecko) Chrome/87.0.4280.141 Safari/537.36",Macintosh,Chrome,87.0.4280.141,"OS X",10_13_6
18,1,"""","""","""",1280,800,eyetracking-calibration,47,129732,0.0-12.0-2.0-1.16,297,0,0,"Integrierte iSight-Kamera (05ac:8507)",30.000030517578125,0.0020833333333333333,480,640,"""","""","""",0.5,0.5,0,0,"{""history"":[{""relative-x"":0.259375,""relative-y"":0.3875,""elapse-time"":109.28500000591157},{""relative-x"":0.45703125,""relative-y"":0.64625,""elapse-time"":205.7249999998021},{""relative-x"":0.41328125,""relative-y"":0.675,""elapse-time"":303.28000000008615},{""relative-x"":0.521875,""relative-y"":0.39625,""elapse-time"":400.9650000007241},{""relative-x"":0.60390625,""relative-y"":0.5125,""elapse-time"":537.2000000061234},{""relative-x"":0.5140625,""relative-y"":0.49875,""elapse-time"":640.4200000033597},{""relative-x"":0.61796875,""relative-y"":0.43875,""elapse-time"":742.0800000036252},{""relative-x"":0.52734375,""relative-y"":0.595,""elapse-time"":841.7650000046706},{""relative-x"":0.51484375,""relative-y"":0.57625,""elapse-time"":939.9499999999534},{""relative-x"":0.465625,""relative-y"":0.41625,""elapse-time"":1036.4650000046822},{""relative-x"":0.5296875,""relative-y"":0.44,""elapse-time"":1145.040000003064},{""relative-x"":0.5703125,""relative-y"":0.46125,""elapse-time"":1244.010000002163},{""relative-x"":0.47890625,""relative-y"":0.64,""elapse-time"":1347.4300000016228},{""relative-x"":0.6203125,""relative-y"":0.62625,""elapse-time"":1442.2350000022561},{""relative-x"":0.58125,""relative-y"":0.33125,""elapse-time"":1546.9250000023749},{""relative-x"":0.63515625,""relative-y"":0.32625,""elapse-time"":1645.8550000024843},{""relative-x"":0.6375,""relative-y"":0.72125,""elapse-time"":1741.0050000034971},{""relative-x"":0.55859375,""relative-y"":0.56125,""elapse-time"":1838.9999999999418},{""relative-x"":0.375,""relative-y"":0.5325,""elapse-time"":1944.3700000047102},{""relative-x"":0.43984375,""relative-y"":0.56875,""elapse-time"":2039.1300000046613},{""relative-x"":0.4234375,""relative-y"":0.45,""elapse-time"":2145.52000000549},{""relative-x"":0.4453125,""relative-y"":0.30625,""elapse-time"":2242.6500000001397},{""relative-x"":0.46953125,""relative-y"":0.54375,""elapse-time"":2343.8050000040676},{""relative-x"":0.49296875,""relative-y"":0.45625,""elapse-time"":2435.875000002852},{""relative-x"":0.54453125,""relative-y"":0.3425,""elapse-time"":2540.580000000773},{""relative-x"":0.45234375,""relative-y"":0.51875,""elapse-time"":2636.495000006107},{""relative-x"":0.6015625,""relative-y"":0.65125,""elapse-time"":2742.2150000056718},{""relative-x"":0.51484375,""relative-y"":0.72875,""elapse-time"":2838.2450000062818},{""relative-x"":0.43828125,""relative-y"":0.9425,""elapse-time"":2944.5250000062515},{""relative-x"":0.5875,""relative-y"":0.605,""elapse-time"":3051.2050000033923},{""relative-x"":0.5375,""relative-y"":0.68125,""elapse-time"":3144.0350000048056},{""relative-x"":0.534375,""relative-y"":0.4125,""elapse-time"":3252.3500000024796},{""relative-x"":0.453125,""relative-y"":0.5875,""elapse-time"":3372.78000000515},{""relative-x"":0.575,""relative-y"":0.43,""elapse-time"":3473.4150000003865},{""relative-x"":0.48046875,""relative-y"":0.24125,""elapse-time"":3577.0400000037625},{""relative-x"":0.51875,""relative-y"":0.63125,""elapse-time"":3675.520000004326},{""relative-x"":0.4953125,""relative-y"":0.41625,""elapse-time"":3775.645000001532},{""relative-x"":0.51796875,""relative-y"":0.765,""elapse-time"":3869.8700000022654}]}","2021-01-14 11:21:39",,"Mozilla/5.0 (Macintosh; Intel Mac OS X 10_13_6) AppleWebKit/537.36 (KHTML, like Gecko) Chrome/87.0.4280.141 Safari/537.36",Macintosh,Chrome,87.0.4280.141,"OS X",10_13_6
18,1,null,"""","""","""","""",html-keyboard-response,48,131241,0.0-12.0-2.0-0.17,297,0,0,"Integrierte iSight-Kamera (05ac:8507)",30.000030517578125,0.0020833333333333333,480,640,"""",null,"""","""","""","""","""","""","2021-01-14 11:21:39",,"Mozilla/5.0 (Macintosh; Intel Mac OS X 10_13_6) AppleWebKit/537.36 (KHTML, like Gecko) Chrome/87.0.4280.141 Safari/537.36",Macintosh,Chrome,87.0.4280.141,"OS X",10_13_6
