run_id,condition,rt,stimulus,button_pressed,window_width,window_height,trial_type,trial_index,time_elapsed,internal_node_id,subject,chinFirst,choiceTask_amountLeftFirst,webcam_label,webcam_Id,webcam_fps,webcam_aspectRatio,webcam_height,webcam_width,bonusAmount,bonusDelay,responses,key_press,success,x_pos,y_pos,chin,task_nr,eyeData,trial_duration,option_topLeft,option_bottomLeft,option_topRight,option_bottomRight,recorded_at,ip,user_agent,device,browser,browser_version,platform,platform_version
3,1,1257.3549999999614,"<div style=""position: fixed; display: inline-block; top: 20%; right: 20%; text-align: right;""><img src=""fu_logo.PNG"" alt=""[FU Berlin Logo]"" style=""width: 25%;""></div><div><br><br><p><strong>Welcome, dear participant! </strong></p><p>Thank you for your interest in and your support for our research.<br> This study is run by researchers at Freie Universität Berlin. </p></div>",0,2047,1050,html-button-response,0,1260,0.0-0.0,412,0,0,"Logitech HD Webcam C310 (046d:081b)",4617013f47ced26b4374220a05f53b26b46cde178f98b7605b02151d56d7f045,30,0.0010416666666666667,960,1280,$4,"15 days","""","""","""","""","""","""","""","""","""","""","""","""","""","2021-01-13 17:40:08",,"Mozilla/5.0 (Windows NT 10.0; Win64; x64) AppleWebKit/537.36 (KHTML, like Gecko) Chrome/87.0.4280.141 Safari/537.36",WebKit,Chrome,87.0.4280.141,Windows,10.0
3,1,2084.190000000035,"""","""","""","""",survey-html-form,1,3360,0.0-1.0,412,0,0,"Logitech HD Webcam C310 (046d:081b)",4617013f47ced26b4374220a05f53b26b46cde178f98b7605b02151d56d7f045,30,0.0010416666666666667,960,1280,$4,"15 days","{""prolificID"":""0""}","""","""","""","""","""","""","""","""","""","""","""","""","2021-01-13 17:40:08",,"Mozilla/5.0 (Windows NT 10.0; Win64; x64) AppleWebKit/537.36 (KHTML, like Gecko) Chrome/87.0.4280.141 Safari/537.36",WebKit,Chrome,87.0.4280.141,Windows,10.0
3,1,2208.925000000023,"<p>Please, use only <strong>one monitor</strong> for this study.<br>If necessary, switch off the other monitors.</p>",0,"""","""",html-button-response,2,5570,0.0-2.0,412,0,0,"Logitech HD Webcam C310 (046d:081b)",4617013f47ced26b4374220a05f53b26b46cde178f98b7605b02151d56d7f045,30,0.0010416666666666667,960,1280,$4,"15 days","""","""","""","""","""","""","""","""","""","""","""","""","""","2021-01-13 17:40:08",,"Mozilla/5.0 (Windows NT 10.0; Win64; x64) AppleWebKit/537.36 (KHTML, like Gecko) Chrome/87.0.4280.141 Safari/537.36",WebKit,Chrome,87.0.4280.141,Windows,10.0
3,1,852.2850000000526,"<p><strong>Please turn your mobile phone into Airplane Mode and close all CPU- or data-intensive programs and websites!</strong><br> (e.g. running Youtube Videos or Torrents)</p>",0,"""","""",html-button-response,3,6424,0.0-3.0,412,0,0,"Logitech HD Webcam C310 (046d:081b)",4617013f47ced26b4374220a05f53b26b46cde178f98b7605b02151d56d7f045,30,0.0010416666666666667,960,1280,$4,"15 days","""","""","""","""","""","""","""","""","""","""","""","""","""","2021-01-13 17:40:08",,"Mozilla/5.0 (Windows NT 10.0; Win64; x64) AppleWebKit/537.36 (KHTML, like Gecko) Chrome/87.0.4280.141 Safari/537.36",WebKit,Chrome,87.0.4280.141,Windows,10.0
3,1,null,"""","""","""","""",html-keyboard-response,4,6538,0.0-4.0,412,0,0,"Logitech HD Webcam C310 (046d:081b)",4617013f47ced26b4374220a05f53b26b46cde178f98b7605b02151d56d7f045,30,0.0010416666666666667,960,1280,$4,"15 days","""",null,"""","""","""","""","""","""","""","""","""","""","""","2021-01-13 17:40:08",,"Mozilla/5.0 (Windows NT 10.0; Win64; x64) AppleWebKit/537.36 (KHTML, like Gecko) Chrome/87.0.4280.141 Safari/537.36",WebKit,Chrome,87.0.4280.141,Windows,10.0
3,1,null,"""","""","""","""",html-keyboard-response,5,6746,0.0-5.0,412,0,0,"Logitech HD Webcam C310 (046d:081b)",4617013f47ced26b4374220a05f53b26b46cde178f98b7605b02151d56d7f045,30,0.0010416666666666667,960,1280,$4,"15 days","""",null,"""","""","""","""","""","""","""","""","""","""","""","2021-01-13 17:40:08",,"Mozilla/5.0 (Windows NT 10.0; Win64; x64) AppleWebKit/537.36 (KHTML, like Gecko) Chrome/87.0.4280.141 Safari/537.36",WebKit,Chrome,87.0.4280.141,Windows,10.0
3,1,48345.204999999965,"<div style=""width: 45%; text-align: left; margin: auto;""><p><strong>For a preliminary adjustment, please consider the following instructions: </strong></p><ol><li>Sit at a table and make sure that you could later rest your elbows on it. </li><li>Sit towards a window or lamp so that there are no shadows on your face. You might additionally turn on a desk lamp for that. </li></ol></div><img src=""lightInstruct.PNG"" alt=""[Eye-Tracking-Instructions]"" style=""width: 70%;"">",0,"""","""",html-button-response,6,55093,0.0-6.0,412,0,0,"Logitech HD Webcam C310 (046d:081b)",4617013f47ced26b4374220a05f53b26b46cde178f98b7605b02151d56d7f045,30,0.0010416666666666667,960,1280,$4,"15 days","""","""","""","""","""","""","""","""","""","""","""","""","""","2021-01-13 17:40:08",,"Mozilla/5.0 (Windows NT 10.0; Win64; x64) AppleWebKit/537.36 (KHTML, like Gecko) Chrome/87.0.4280.141 Safari/537.36",WebKit,Chrome,87.0.4280.141,Windows,10.0
3,1,10064.695000000022,"<div style=""width: 45%; text-align: left; margin: auto;""><ol start='3'><li>Check the video and stay in the highlighted rectangle so that it becomes green. </li><li>Try as much as possible to follow the instructions on these pictures and avoid moving your head. If you move too much, the calibration can fail and you might not be able to finish the study. </li><li><strong>If necessary, adjust your laptop, monitor, webcam, or chair. </strong></li></ol></div><img src=""ETInstructions.PNG"" alt=""[Eye-Tracking-Instructions]"" style=""width: 70%;"">",0,"""","""",html-button-response,7,65163,0.0-7.0,412,0,0,"Logitech HD Webcam C310 (046d:081b)",4617013f47ced26b4374220a05f53b26b46cde178f98b7605b02151d56d7f045,30,0.0010416666666666667,960,1280,$4,"15 days","""","""","""","""","""","""","""","""","""","""","""","""","""","2021-01-13 17:40:08",,"Mozilla/5.0 (Windows NT 10.0; Win64; x64) AppleWebKit/537.36 (KHTML, like Gecko) Chrome/87.0.4280.141 Safari/537.36",WebKit,Chrome,87.0.4280.141,Windows,10.0
3,1,"""","""","""",2047,1050,fullscreen,8,67606,0.0-8.0,412,0,0,"Logitech HD Webcam C310 (046d:081b)",4617013f47ced26b4374220a05f53b26b46cde178f98b7605b02151d56d7f045,30,0.0010416666666666667,960,1280,$4,"15 days","""","""",true,"""","""","""","""","""","""","""","""","""","""","2021-01-13 17:40:08",,"Mozilla/5.0 (Windows NT 10.0; Win64; x64) AppleWebKit/537.36 (KHTML, like Gecko) Chrome/87.0.4280.141 Safari/537.36",WebKit,Chrome,87.0.4280.141,Windows,10.0
3,1,7208.6000000000495,"<div style=""width: 45%; margin: auto; text-align: justify;""><p>For the next task, please do <strong>not</strong> rest your head on your arm but keep your head in a natural position. Get sure that you stay in the rectangle in the video stream while doing that. </p><p>However, in order to make this measurement as accurate as possible, please keep your head at the same position at all time so that you <strong>only move your eyes</strong> when you look at the screen. </p></div><p style=""text-align: center;"">Press Space to continue </p>","""","""","""",html-keyboard-response,9,74820,0.0-9.0,412,0,0,"Logitech HD Webcam C310 (046d:081b)",4617013f47ced26b4374220a05f53b26b46cde178f98b7605b02151d56d7f045,30,0.0010416666666666667,960,1280,$4,"15 days","""",32,"""","""","""","""","""","""","""","""","""","""","""","2021-01-13 17:40:08",,"Mozilla/5.0 (Windows NT 10.0; Win64; x64) AppleWebKit/537.36 (KHTML, like Gecko) Chrome/87.0.4280.141 Safari/537.36",WebKit,Chrome,87.0.4280.141,Windows,10.0
3,1,1541.224999999933,"<p><strong>Can you stay in that pose for a while?</strong></p><p>If not, then please adjust now in order to be comfortable.</p><br><p>Press Space to continue</p>","""","""","""",html-keyboard-response,10,76364,0.0-10.0,412,0,0,"Logitech HD Webcam C310 (046d:081b)",4617013f47ced26b4374220a05f53b26b46cde178f98b7605b02151d56d7f045,30,0.0010416666666666667,960,1280,$4,"15 days","""",32,"""","""","""","""","""","""","""","""","""","""","""","2021-01-13 17:40:08",,"Mozilla/5.0 (Windows NT 10.0; Win64; x64) AppleWebKit/537.36 (KHTML, like Gecko) Chrome/87.0.4280.141 Safari/537.36",WebKit,Chrome,87.0.4280.141,Windows,10.0
3,1,911.0349999999744,"<div style=""position: fixed; top: 30%; left: 27.5%; width: 45%; margin: auto; text-align: justify;""><p>For calibration purposes, there will be buttons (39 in total) appearing one after another. <strong>Click 14x on each button</strong> until it turns green. Then the next button will appear. This will take around <strong>3 minutes. </strong></p><p>For an accurate measurement, please <strong><u>always</u></strong> follow the mouse cursor with your eyes. </p><br><p style=""text-align: center;"">Press Space to continue</p></div>","""","""","""",html-keyboard-response,11,77278,0.0-11.0,412,0,0,"Logitech HD Webcam C310 (046d:081b)",4617013f47ced26b4374220a05f53b26b46cde178f98b7605b02151d56d7f045,30,0.0010416666666666667,960,1280,$4,"15 days","""",32,"""","""","""","""","""","""","""","""","""","""","""","2021-01-13 17:40:08",,"Mozilla/5.0 (Windows NT 10.0; Win64; x64) AppleWebKit/537.36 (KHTML, like Gecko) Chrome/87.0.4280.141 Safari/537.36",WebKit,Chrome,87.0.4280.141,Windows,10.0
3,1,null,"""","""","""","""",html-keyboard-response,12,77437,0.0-12.0-0.0,412,0,0,"Logitech HD Webcam C310 (046d:081b)",4617013f47ced26b4374220a05f53b26b46cde178f98b7605b02151d56d7f045,30,0.0010416666666666667,960,1280,$4,"15 days","""",null,"""","""","""","""","""","""","""","""","""","""","""","2021-01-13 17:40:08",,"Mozilla/5.0 (Windows NT 10.0; Win64; x64) AppleWebKit/537.36 (KHTML, like Gecko) Chrome/87.0.4280.141 Safari/537.36",WebKit,Chrome,87.0.4280.141,Windows,10.0
3,1,null,"""","""","""","""",html-keyboard-response,13,77573,0.0-12.0-1.0,412,0,0,"Logitech HD Webcam C310 (046d:081b)",4617013f47ced26b4374220a05f53b26b46cde178f98b7605b02151d56d7f045,30,0.0010416666666666667,960,1280,$4,"15 days","""",null,"""","""","""","""","""","""","""","""","""","""","""","2021-01-13 17:40:08",,"Mozilla/5.0 (Windows NT 10.0; Win64; x64) AppleWebKit/537.36 (KHTML, like Gecko) Chrome/87.0.4280.141 Safari/537.36",WebKit,Chrome,87.0.4280.141,Windows,10.0
3,1,null,"""","""","""","""",html-keyboard-response,14,79093,0.0-12.0-2.0-0.0,412,0,0,"Logitech HD Webcam C310 (046d:081b)",4617013f47ced26b4374220a05f53b26b46cde178f98b7605b02151d56d7f045,30,0.0010416666666666667,960,1280,$4,"15 days","""",null,"""","""","""","""","""","""","""","""","""","""","""","2021-01-13 17:40:08",,"Mozilla/5.0 (Windows NT 10.0; Win64; x64) AppleWebKit/537.36 (KHTML, like Gecko) Chrome/87.0.4280.141 Safari/537.36",WebKit,Chrome,87.0.4280.141,Windows,10.0
3,1,"""","""","""",2048,1152,eyetracking-calibration,15,83039,0.0-12.0-2.0-1.0,412,0,0,"Logitech HD Webcam C310 (046d:081b)",4617013f47ced26b4374220a05f53b26b46cde178f98b7605b02151d56d7f045,30,0.0010416666666666667,960,1280,$4,"15 days","""","""","""",0.5,0.2,0,0,"{""history"":[{""relative-x"":0.7158203125,""relative-y"":0.8333333333333334,""elapse-time"":74.15000000003783},{""relative-x"":0.71630859375,""relative-y"":0.8289930555555556,""elapse-time"":131.09500000007392},{""relative-x"":0.70166015625,""relative-y"":0.8125,""elapse-time"":158.51500000008673},{""relative-x"":0.69091796875,""relative-y"":0.7994791666666666,""elapse-time"":182.5350000000326},{""relative-x"":0.591796875,""relative-y"":0.6796875,""elapse-time"":205.60500000011234},{""relative-x"":0.5478515625,""relative-y"":0.640625,""elapse-time"":229.83500000010827},{""relative-x"":0.533203125,""relative-y"":0.6085069444444444,""elapse-time"":252.990000000078},{""relative-x"":0.5517578125,""relative-y"":0.6276041666666666,""elapse-time"":276.24500000002445},{""relative-x"":0.5234375,""relative-y"":0.6154513888888888,""elapse-time"":301.0800000000745},{""relative-x"":0.47119140625,""relative-y"":0.5659722222222222,""elapse-time"":325.1050000000105},{""relative-x"":0.46923828125,""relative-y"":0.578125,""elapse-time"":347.9750000000204},{""relative-x"":0.44482421875,""relative-y"":0.5434027777777778,""elapse-time"":374.8250000001135},{""relative-x"":0.41796875,""relative-y"":0.5069444444444444,""elapse-time"":399.9350000000413},{""relative-x"":0.4013671875,""relative-y"":0.4800347222222222,""elapse-time"":423.45000000001164},{""relative-x"":0.40185546875,""relative-y"":0.4730902777777778,""elapse-time"":447.42000000008557},{""relative-x"":0.40185546875,""relative-y"":0.4730902777777778,""elapse-time"":471.0300000000425},{""relative-x"":0.3955078125,""relative-y"":0.4565972222222222,""elapse-time"":494.4600000000064},{""relative-x"":0.4013671875,""relative-y"":0.4661458333333333,""elapse-time"":520.5850000001083},{""relative-x"":0.3974609375,""relative-y"":0.4592013888888889,""elapse-time"":550.425000000032},{""relative-x"":0.39599609375,""relative-y"":0.4817708333333333,""elapse-time"":574.5350000000908},{""relative-x"":0.68603515625,""relative-y"":0.7977430555555556,""elapse-time"":863.960000000021},{""relative-x"":0.5693359375,""relative-y"":0.3376736111111111,""elapse-time"":917.6300000000338},{""relative-x"":0.58447265625,""relative-y"":0.3741319444444444,""elapse-time"":948.0150000000576},{""relative-x"":0.5439453125,""relative-y"":0.2769097222222222,""elapse-time"":976.9500000001135},{""relative-x"":0.54833984375,""relative-y"":0.2881944444444444,""elapse-time"":999.2150000000547},{""relative-x"":0.521484375,""relative-y"":0.2222222222222222,""elapse-time"":1027.525000000096},{""relative-x"":0.53076171875,""relative-y"":0.2404513888888889,""elapse-time"":1052.8750000000873},{""relative-x"":0.52587890625,""relative-y"":0.22743055555555555,""elapse-time"":1079.1850000000559},{""relative-x"":0.5185546875,""relative-y"":0.2282986111111111,""elapse-time"":1108.8600000000588},{""relative-x"":0.521484375,""relative-y"":0.2300347222222222,""elapse-time"":1132.2650000000867},{""relative-x"":0.5107421875,""relative-y"":0.2265625,""elapse-time"":1157.5250000000815},{""relative-x"":0.525390625,""relative-y"":0.2482638888888889,""elapse-time"":1191.6350000000239},{""relative-x"":0.525390625,""relative-y"":0.2482638888888889,""elapse-time"":1217.1600000000471},{""relative-x"":0.51513671875,""relative-y"":0.24739583333333334,""elapse-time"":1241.300000000032},{""relative-x"":0.515625,""relative-y"":0.2282986111111111,""elapse-time"":1272.015000000014},{""relative-x"":0.505859375,""relative-y"":0.2456597222222222,""elapse-time"":1295.9500000000698},{""relative-x"":0.49365234375,""relative-y"":0.24479166666666666,""elapse-time"":1322.915000000081},{""relative-x"":0.49755859375,""relative-y"":0.2465277777777778,""elapse-time"":1348.0900000000838},{""relative-x"":0.50244140625,""relative-y"":0.2230902777777778,""elapse-time"":1372.1450000000477},{""relative-x"":0.5751953125,""relative-y"":0.3333333333333333,""elapse-time"":2097.885000000024},{""relative-x"":0.52978515625,""relative-y"":0.2621527777777778,""elapse-time"":2141.7600000000966},{""relative-x"":0.4775390625,""relative-y"":0.265625,""elapse-time"":2165.2700000000914},{""relative-x"":0.48779296875,""relative-y"":0.2543402777777778,""elapse-time"":2191.2900000000955},{""relative-x"":0.51220703125,""relative-y"":0.2803819444444444,""elapse-time"":2215.900000000038},{""relative-x"":0.54443359375,""relative-y"":0.3081597222222222,""elapse-time"":2241.7350000000733},{""relative-x"":0.484375,""relative-y"":0.2074652777777778,""elapse-time"":2273.1650000000664},{""relative-x"":0.47021484375,""relative-y"":0.203125,""elapse-time"":3243.215000000084},{""relative-x"":0.51416015625,""relative-y"":0.2387152777777778,""elapse-time"":3277.4100000000326},{""relative-x"":0.53076171875,""relative-y"":0.2482638888888889,""elapse-time"":3302.0250000000815},{""relative-x"":0.47705078125,""relative-y"":0.20052083333333334,""elapse-time"":3330.420000000013},{""relative-x"":0.50732421875,""relative-y"":0.2282986111111111,""elapse-time"":3356.985000000015},{""relative-x"":0.50830078125,""relative-y"":0.22395833333333334,""elapse-time"":3385.3150000001187},{""relative-x"":0.51171875,""relative-y"":0.21961805555555555,""elapse-time"":3411.940000000075},{""relative-x"":0.5126953125,""relative-y"":0.21614583333333334,""elapse-time"":3438.380000000063},{""relative-x"":0.49658203125,""relative-y"":0.2309027777777778,""elapse-time"":3468.7850000000326},{""relative-x"":0.51318359375,""relative-y"":0.234375,""elapse-time"":3492.7400000000343},{""relative-x"":0.4990234375,""relative-y"":0.1996527777777778,""elapse-time"":3516.9450000000797},{""relative-x"":0.486328125,""relative-y"":0.23697916666666666,""elapse-time"":3545.6550000000134},{""relative-x"":0.45849609375,""relative-y"":0.21006944444444445,""elapse-time"":3578.2750000000815},{""relative-x"":0.47021484375,""relative-y"":0.2048611111111111,""elapse-time"":3602.2750000000815},{""relative-x"":0.51416015625,""relative-y"":0.23524305555555555,""elapse-time"":3633.315000000046},{""relative-x"":0.53515625,""relative-y"":0.2690972222222222,""elapse-time"":3659.0650000000605},{""relative-x"":0.5380859375,""relative-y"":0.2647569444444444,""elapse-time"":3683.9250000000466},{""relative-x"":0.5380859375,""relative-y"":0.2647569444444444,""elapse-time"":3709.4450000000797},{""relative-x"":0.4990234375,""relative-y"":0.23524305555555555,""elapse-time"":3734.1150000000926},{""relative-x"":0.5107421875,""relative-y"":0.2482638888888889,""elapse-time"":3759.0050000000047},{""relative-x"":0.52294921875,""relative-y"":0.24739583333333334,""elapse-time"":3782.7850000001054},{""relative-x"":0.53173828125,""relative-y"":0.2361111111111111,""elapse-time"":3810.515000000014},{""relative-x"":0.5419921875,""relative-y"":0.23697916666666666,""elapse-time"":3835.09000000004},{""relative-x"":0.5068359375,""relative-y"":0.2282986111111111,""elapse-time"":3859.660000000091},{""relative-x"":0.5068359375,""relative-y"":0.2282986111111111,""elapse-time"":3886.5000000000728}]}","""","""","""","""","""","2021-01-13 17:40:08",,"Mozilla/5.0 (Windows NT 10.0; Win64; x64) AppleWebKit/537.36 (KHTML, like Gecko) Chrome/87.0.4280.141 Safari/537.36",WebKit,Chrome,87.0.4280.141,Windows,10.0
3,1,null,"""","""","""","""",html-keyboard-response,16,84542,0.0-12.0-2.0-0.1,412,0,0,"Logitech HD Webcam C310 (046d:081b)",4617013f47ced26b4374220a05f53b26b46cde178f98b7605b02151d56d7f045,30,0.0010416666666666667,960,1280,$4,"15 days","""",null,"""","""","""","""","""","""","""","""","""","""","""","2021-01-13 17:40:08",,"Mozilla/5.0 (Windows NT 10.0; Win64; x64) AppleWebKit/537.36 (KHTML, like Gecko) Chrome/87.0.4280.141 Safari/537.36",WebKit,Chrome,87.0.4280.141,Windows,10.0
3,1,"""","""","""",2048,1152,eyetracking-calibration,17,88031,0.0-12.0-2.0-1.1,412,0,0,"Logitech HD Webcam C310 (046d:081b)",4617013f47ced26b4374220a05f53b26b46cde178f98b7605b02151d56d7f045,30,0.0010416666666666667,960,1280,$4,"15 days","""","""","""",0.65,0.35,0,0,"{""history"":[{""relative-x"":0.5556640625,""relative-y"":0.2717013888888889,""elapse-time"":57.09000000001106},{""relative-x"":0.52880859375,""relative-y"":0.24305555555555555,""elapse-time"":88.79499999999825},{""relative-x"":0.5244140625,""relative-y"":0.2230902777777778,""elapse-time"":119.2499999999709},{""relative-x"":0.52197265625,""relative-y"":0.2222222222222222,""elapse-time"":145.93500000001222},{""relative-x"":0.52294921875,""relative-y"":0.22916666666666666,""elapse-time"":170.38999999999942},{""relative-x"":0.525390625,""relative-y"":0.2230902777777778,""elapse-time"":195.05000000003201},{""relative-x"":0.5244140625,""relative-y"":0.2248263888888889,""elapse-time"":221.98000000002503},{""relative-x"":0.52880859375,""relative-y"":0.2621527777777778,""elapse-time"":260.90999999995984},{""relative-x"":0.5224609375,""relative-y"":0.2552083333333333,""elapse-time"":286.995000000039},{""relative-x"":0.54150390625,""relative-y"":0.234375,""elapse-time"":315.5199999999895},{""relative-x"":0.537109375,""relative-y"":0.2326388888888889,""elapse-time"":338.5100000000384},{""relative-x"":0.52880859375,""relative-y"":0.2795138888888889,""elapse-time"":366.1750000000029},{""relative-x"":0.5302734375,""relative-y"":0.2760416666666667,""elapse-time"":389.32499999998254},{""relative-x"":0.5888671875,""relative-y"":0.3159722222222222,""elapse-time"":418.57000000005064},{""relative-x"":0.5693359375,""relative-y"":0.2994791666666667,""elapse-time"":443.3850000000384},{""relative-x"":0.51953125,""relative-y"":0.24739583333333334,""elapse-time"":781.664999999979},{""relative-x"":0.576171875,""relative-y"":0.2621527777777778,""elapse-time"":816.4150000000081},{""relative-x"":0.53662109375,""relative-y"":0.2421875,""elapse-time"":840.4749999999622},{""relative-x"":0.61376953125,""relative-y"":0.3237847222222222,""elapse-time"":869.6099999999715},{""relative-x"":0.5810546875,""relative-y"":0.3012152777777778,""elapse-time"":897.2499999999854},{""relative-x"":0.55810546875,""relative-y"":0.2734375,""elapse-time"":925.1699999999837},{""relative-x"":0.6240234375,""relative-y"":0.3359375,""elapse-time"":950.050000000032},{""relative-x"":0.5986328125,""relative-y"":0.3133680555555556,""elapse-time"":973.7999999999884},{""relative-x"":0.5693359375,""relative-y"":0.3081597222222222,""elapse-time"":999.6650000000518},{""relative-x"":0.58837890625,""relative-y"":0.2309027777777778,""elapse-time"":1030.0899999999674},{""relative-x"":0.54931640625,""relative-y"":0.2717013888888889,""elapse-time"":1056.7399999999907},{""relative-x"":0.54638671875,""relative-y"":0.2456597222222222,""elapse-time"":1081.8649999999907},{""relative-x"":0.5361328125,""relative-y"":0.2638888888888889,""elapse-time"":1107.6249999999854},{""relative-x"":0.56396484375,""relative-y"":0.2769097222222222,""elapse-time"":1131.3999999999796},{""relative-x"":0.53466796875,""relative-y"":0.2387152777777778,""elapse-time"":1156.4449999999633},{""relative-x"":0.6640625,""relative-y"":0.3706597222222222,""elapse-time"":1187.2799999999843},{""relative-x"":0.64697265625,""relative-y"":0.3680555555555556,""elapse-time"":1213.304999999993},{""relative-x"":0.634765625,""relative-y"":0.3515625,""elapse-time"":1238.1950000000215},{""relative-x"":0.58056640625,""relative-y"":0.3116319444444444,""elapse-time"":1264.0649999999587},{""relative-x"":0.5654296875,""relative-y"":0.2838541666666667,""elapse-time"":1289.4599999999627},{""relative-x"":0.5654296875,""relative-y"":0.2838541666666667,""elapse-time"":1314.8800000000192},{""relative-x"":0.6171875,""relative-y"":0.3246527777777778,""elapse-time"":1347.4099999999598},{""relative-x"":0.66357421875,""relative-y"":0.3645833333333333,""elapse-time"":1371.395000000004},{""relative-x"":0.66357421875,""relative-y"":0.3645833333333333,""elapse-time"":1396.1850000000559},{""relative-x"":0.65478515625,""relative-y"":0.34375,""elapse-time"":1421.2099999999773},{""relative-x"":0.65478515625,""relative-y"":0.34375,""elapse-time"":1447.6449999999604},{""relative-x"":0.65576171875,""relative-y"":0.3446180555555556,""elapse-time"":1471.655000000057},{""relative-x"":0.72509765625,""relative-y"":0.4192708333333333,""elapse-time"":1497.2050000000017},{""relative-x"":0.66455078125,""relative-y"":0.3715277777777778,""elapse-time"":1526.809999999954},{""relative-x"":0.63232421875,""relative-y"":0.3411458333333333,""elapse-time"":1550.9150000000373},{""relative-x"":0.6259765625,""relative-y"":0.3289930555555556,""elapse-time"":1594.1549999999988},{""relative-x"":0.6181640625,""relative-y"":0.3125,""elapse-time"":1625.6849999999686},{""relative-x"":0.66357421875,""relative-y"":0.3559027777777778,""elapse-time"":1667.8000000000611},{""relative-x"":0.63330078125,""relative-y"":0.3411458333333333,""elapse-time"":1700.5350000000617},{""relative-x"":0.63330078125,""relative-y"":0.3411458333333333,""elapse-time"":1726.4000000000087},{""relative-x"":0.58740234375,""relative-y"":0.2907986111111111,""elapse-time"":1750.7000000000553},{""relative-x"":0.58740234375,""relative-y"":0.2907986111111111,""elapse-time"":1777.9600000000064},{""relative-x"":0.58740234375,""relative-y"":0.2907986111111111,""elapse-time"":1802.8249999999825},{""relative-x"":0.70068359375,""relative-y"":0.4253472222222222,""elapse-time"":1831.8199999999924},{""relative-x"":0.625,""relative-y"":0.34375,""elapse-time"":1855.8249999999825},{""relative-x"":0.4638671875,""relative-y"":0.2586805555555556,""elapse-time"":2149.5099999999657},{""relative-x"":0.5654296875,""relative-y"":0.2673611111111111,""elapse-time"":2192.5650000000605},{""relative-x"":0.5654296875,""relative-y"":0.2526041666666667,""elapse-time"":2219.875}]}","""","""","""","""","""","2021-01-13 17:40:08",,"Mozilla/5.0 (Windows NT 10.0; Win64; x64) AppleWebKit/537.36 (KHTML, like Gecko) Chrome/87.0.4280.141 Safari/537.36",WebKit,Chrome,87.0.4280.141,Windows,10.0
3,1,null,"""","""","""","""",html-keyboard-response,18,89533,0.0-12.0-2.0-0.2,412,0,0,"Logitech HD Webcam C310 (046d:081b)",4617013f47ced26b4374220a05f53b26b46cde178f98b7605b02151d56d7f045,30,0.0010416666666666667,960,1280,$4,"15 days","""",null,"""","""","""","""","""","""","""","""","""","""","""","2021-01-13 17:40:08",,"Mozilla/5.0 (Windows NT 10.0; Win64; x64) AppleWebKit/537.36 (KHTML, like Gecko) Chrome/87.0.4280.141 Safari/537.36",WebKit,Chrome,87.0.4280.141,Windows,10.0
3,1,"""","""","""",2048,1152,eyetracking-calibration,19,93056,0.0-12.0-2.0-1.2,412,0,0,"Logitech HD Webcam C310 (046d:081b)",4617013f47ced26b4374220a05f53b26b46cde178f98b7605b02151d56d7f045,30,0.0010416666666666667,960,1280,$4,"15 days","""","""","""",0.8,0.5,0,0,"{""history"":[{""relative-x"":0.53662109375,""relative-y"":0.23958333333333334,""elapse-time"":2881.5000000000873},{""relative-x"":0.83349609375,""relative-y"":0.5381944444444444,""elapse-time"":2922.1800000000367},{""relative-x"":0.74267578125,""relative-y"":0.4461805555555556,""elapse-time"":2953.0100000000675},{""relative-x"":0.70703125,""relative-y"":0.4036458333333333,""elapse-time"":2979.6150000000926},{""relative-x"":0.6201171875,""relative-y"":0.2986111111111111,""elapse-time"":3003.685000000027},{""relative-x"":0.5947265625,""relative-y"":0.2760416666666667,""elapse-time"":3028.8850000000675},{""relative-x"":0.6025390625,""relative-y"":0.2916666666666667,""elapse-time"":3052.4550000000163},{""relative-x"":0.60498046875,""relative-y"":0.2916666666666667,""elapse-time"":3079.4100000000617},{""relative-x"":0.60107421875,""relative-y"":0.2942708333333333,""elapse-time"":3103.910000000047},{""relative-x"":0.826171875,""relative-y"":0.5381944444444444,""elapse-time"":3136.4400000001187},{""relative-x"":0.8515625,""relative-y"":0.5902777777777778,""elapse-time"":3161.0250000001106},{""relative-x"":0.79150390625,""relative-y"":0.5190972222222222,""elapse-time"":3187.8400000000547},{""relative-x"":0.67724609375,""relative-y"":0.3888888888888889,""elapse-time"":3213.4600000000646},{""relative-x"":0.53759765625,""relative-y"":0.2664930555555556,""elapse-time"":3236.445000000007},{""relative-x"":0.4208984375,""relative-y"":0.1467013888888889,""elapse-time"":3263.3850000000966},{""relative-x"":0.75927734375,""relative-y"":0.4696180555555556,""elapse-time"":3294.170000000013},{""relative-x"":0.75927734375,""relative-y"":0.4696180555555556,""elapse-time"":3319.3450000001176},{""relative-x"":0.76220703125,""relative-y"":0.46875,""elapse-time"":3345.1550000001007},{""relative-x"":0.841796875,""relative-y"":0.5425347222222222,""elapse-time"":3370.765000000014},{""relative-x"":0.78466796875,""relative-y"":0.4878472222222222,""elapse-time"":3396.2150000000984},{""relative-x"":0.86962890625,""relative-y"":0.5789930555555556,""elapse-time"":3421.970000000103},{""relative-x"":0.80908203125,""relative-y"":0.5234375,""elapse-time"":3445.1500000000233},{""relative-x"":0.7333984375,""relative-y"":0.4505208333333333,""elapse-time"":3477.1350000000966},{""relative-x"":0.70849609375,""relative-y"":0.4131944444444444,""elapse-time"":3503.420000000013}]}","""","""","""","""","""","2021-01-13 17:40:08",,"Mozilla/5.0 (Windows NT 10.0; Win64; x64) AppleWebKit/537.36 (KHTML, like Gecko) Chrome/87.0.4280.141 Safari/537.36",WebKit,Chrome,87.0.4280.141,Windows,10.0
3,1,null,"""","""","""","""",html-keyboard-response,20,94559,0.0-12.0-2.0-0.3,412,0,0,"Logitech HD Webcam C310 (046d:081b)",4617013f47ced26b4374220a05f53b26b46cde178f98b7605b02151d56d7f045,30,0.0010416666666666667,960,1280,$4,"15 days","""",null,"""","""","""","""","""","""","""","""","""","""","""","2021-01-13 17:40:08",,"Mozilla/5.0 (Windows NT 10.0; Win64; x64) AppleWebKit/537.36 (KHTML, like Gecko) Chrome/87.0.4280.141 Safari/537.36",WebKit,Chrome,87.0.4280.141,Windows,10.0
3,1,"""","""","""",2048,1152,eyetracking-calibration,21,98103,0.0-12.0-2.0-1.3,412,0,0,"Logitech HD Webcam C310 (046d:081b)",4617013f47ced26b4374220a05f53b26b46cde178f98b7605b02151d56d7f045,30,0.0010416666666666667,960,1280,$4,"15 days","""","""","""",0.2,0.2,0,0,"{""history"":[{""relative-x"":0.80615234375,""relative-y"":0.5008680555555556,""elapse-time"":633.1750000000611},{""relative-x"":0.333984375,""relative-y"":0.20833333333333334,""elapse-time"":668.1000000001077},{""relative-x"":0.43359375,""relative-y"":0.2248263888888889,""elapse-time"":691.6800000000221},{""relative-x"":0.46044921875,""relative-y"":0.3072916666666667,""elapse-time"":722.9450000000943},{""relative-x"":0.44921875,""relative-y"":0.19270833333333334,""elapse-time"":746.8200000000797},{""relative-x"":0.591796875,""relative-y"":0.3645833333333333,""elapse-time"":771.95500000006},{""relative-x"":0.4951171875,""relative-y"":0.265625,""elapse-time"":801.4900000000634},{""relative-x"":0.357421875,""relative-y"":0.23177083333333334,""elapse-time"":825.5650000001042},{""relative-x"":0.3203125,""relative-y"":0.3029513888888889,""elapse-time"":853.8900000001013},{""relative-x"":0.43603515625,""relative-y"":0.3368055555555556,""elapse-time"":880.7400000000634},{""relative-x"":0.1494140625,""relative-y"":0.16493055555555555,""elapse-time"":928.4200000000856},{""relative-x"":0.29150390625,""relative-y"":0.23177083333333334,""elapse-time"":960.1550000001007},{""relative-x"":0.11474609375,""relative-y"":0.2074652777777778,""elapse-time"":991.2300000000978},{""relative-x"":-0.10302734375,""relative-y"":0.006076388888888889,""elapse-time"":1015.3550000000105},{""relative-x"":-0.1171875,""relative-y"":0,""elapse-time"":1061.8200000000215},{""relative-x"":0.02685546875,""relative-y"":0.033854166666666664,""elapse-time"":1098.2650000000867},{""relative-x"":0.046875,""relative-y"":0.008680555555555556,""elapse-time"":1124.6000000001077},{""relative-x"":0.1455078125,""relative-y"":0.140625,""elapse-time"":1150.4000000001106},{""relative-x"":0.541015625,""relative-y"":0.375,""elapse-time"":1177.145000000004},{""relative-x"":0.31884765625,""relative-y"":0.2838541666666667,""elapse-time"":1203.9600000000646},{""relative-x"":0.36572265625,""relative-y"":0.3020833333333333,""elapse-time"":1233.485000000088},{""relative-x"":0.60498046875,""relative-y"":0.4496527777777778,""elapse-time"":1258.9600000000064},{""relative-x"":0.439453125,""relative-y"":0.2881944444444444,""elapse-time"":1284.7600000000093},{""relative-x"":0.55029296875,""relative-y"":0.3741319444444444,""elapse-time"":1310.7200000000594},{""relative-x"":0.41796875,""relative-y"":0.2604166666666667,""elapse-time"":1336.885000000053},{""relative-x"":0.5234375,""relative-y"":0.2803819444444444,""elapse-time"":1360.9550000001036},{""relative-x"":0.5234375,""relative-y"":0.2803819444444444,""elapse-time"":1387.9550000000454},{""relative-x"":0.27880859375,""relative-y"":0.22569444444444445,""elapse-time"":1417.5800000000454},{""relative-x"":0.310546875,""relative-y"":0.2387152777777778,""elapse-time"":1444.580000000089},{""relative-x"":0.310546875,""relative-y"":0.2387152777777778,""elapse-time"":1469.2950000001147},{""relative-x"":0.2490234375,""relative-y"":0.2586805555555556,""elapse-time"":1497.5000000000582},{""relative-x"":0.37744140625,""relative-y"":0.3741319444444444,""elapse-time"":1539.1600000000471},{""relative-x"":0.3681640625,""relative-y"":0.2725694444444444,""elapse-time"":1575.1450000000332},{""relative-x"":0.4296875,""relative-y"":0.3029513888888889,""elapse-time"":1987.3150000000896},{""relative-x"":0.4462890625,""relative-y"":0.3107638888888889,""elapse-time"":3067.850000000035},{""relative-x"":0.36376953125,""relative-y"":0.2708333333333333,""elapse-time"":3103.7350000000297},{""relative-x"":0.2119140625,""relative-y"":0.2456597222222222,""elapse-time"":3133.3600000000442},{""relative-x"":0.1279296875,""relative-y"":0.18055555555555555,""elapse-time"":3156.905000000057},{""relative-x"":0.1884765625,""relative-y"":0.15625,""elapse-time"":3184.4400000000023}]}","""","""","""","""","""","2021-01-13 17:40:08",,"Mozilla/5.0 (Windows NT 10.0; Win64; x64) AppleWebKit/537.36 (KHTML, like Gecko) Chrome/87.0.4280.141 Safari/537.36",WebKit,Chrome,87.0.4280.141,Windows,10.0
3,1,null,"""","""","""","""",html-keyboard-response,22,99605,0.0-12.0-2.0-0.4,412,0,0,"Logitech HD Webcam C310 (046d:081b)",4617013f47ced26b4374220a05f53b26b46cde178f98b7605b02151d56d7f045,30,0.0010416666666666667,960,1280,$4,"15 days","""",null,"""","""","""","""","""","""","""","""","""","""","""","2021-01-13 17:40:08",,"Mozilla/5.0 (Windows NT 10.0; Win64; x64) AppleWebKit/537.36 (KHTML, like Gecko) Chrome/87.0.4280.141 Safari/537.36",WebKit,Chrome,87.0.4280.141,Windows,10.0
3,1,"""","""","""",2048,1152,eyetracking-calibration,23,103180,0.0-12.0-2.0-1.4,412,0,0,"Logitech HD Webcam C310 (046d:081b)",4617013f47ced26b4374220a05f53b26b46cde178f98b7605b02151d56d7f045,30,0.0010416666666666667,960,1280,$4,"15 days","""","""","""",0.8,0.2,0,0,"{""history"":[{""relative-x"":0.02880859375,""relative-y"":0.1675347222222222,""elapse-time"":676.2850000000035},{""relative-x"":0.482421875,""relative-y"":0.1640625,""elapse-time"":721.2350000000879},{""relative-x"":0.681640625,""relative-y"":0.3463541666666667,""elapse-time"":752.1250000000873},{""relative-x"":0.9189453125,""relative-y"":0.4626736111111111,""elapse-time"":782.3000000000757},{""relative-x"":0.38427734375,""relative-y"":0.2960069444444444,""elapse-time"":816.3150000000314},{""relative-x"":0.3994140625,""relative-y"":0.3862847222222222,""elapse-time"":852.1450000000623},{""relative-x"":0.49462890625,""relative-y"":0.3932291666666667,""elapse-time"":878.7799999999988},{""relative-x"":0.87158203125,""relative-y"":0.4817708333333333,""elapse-time"":907.5750000000553},{""relative-x"":0.595703125,""relative-y"":0.3394097222222222,""elapse-time"":933.6699999999983},{""relative-x"":0.31494140625,""relative-y"":0.15625,""elapse-time"":961.3150000000023},{""relative-x"":-0.0654296875,""relative-y"":-0.04513888888888889,""elapse-time"":986.0900000000984},{""relative-x"":-0.080078125,""relative-y"":0.08159722222222222,""elapse-time"":1014.4850000000297},{""relative-x"":0.806640625,""relative-y"":0.13194444444444445,""elapse-time"":1045.7700000000623},{""relative-x"":0.64013671875,""relative-y"":0.1814236111111111,""elapse-time"":1069.9150000000373},{""relative-x"":0.57666015625,""relative-y"":0.4305555555555556,""elapse-time"":1096.4800000000396},{""relative-x"":0.44873046875,""relative-y"":0.3116319444444444,""elapse-time"":1124.2750000000087},{""relative-x"":0.111328125,""relative-y"":0.2048611111111111,""elapse-time"":1151.2300000000541},{""relative-x"":0.62060546875,""relative-y"":0.3515625,""elapse-time"":1177.3450000000594},{""relative-x"":0.5771484375,""relative-y"":0.2517361111111111,""elapse-time"":1210.4550000000163},{""relative-x"":0.3564453125,""relative-y"":0.1892361111111111,""elapse-time"":1237.5350000000908},{""relative-x"":-0.107421875,""relative-y"":-0.17708333333333334,""elapse-time"":1282.045000000042},{""relative-x"":-0.283203125,""relative-y"":-0.16927083333333334,""elapse-time"":1317.365000000107},{""relative-x"":-0.0380859375,""relative-y"":-0.4201388888888889,""elapse-time"":1341.9250000000611},{""relative-x"":-0.18701171875,""relative-y"":-0.4027777777777778,""elapse-time"":1375.0150000000722},{""relative-x"":-0.71435546875,""relative-y"":-0.3619791666666667,""elapse-time"":1401.5950000000448},{""relative-x"":-0.95458984375,""relative-y"":-0.11805555555555555,""elapse-time"":1429.2350000000588},{""relative-x"":-1.73876953125,""relative-y"":-0.2916666666666667,""elapse-time"":1455.2750000000233},{""relative-x"":-1.22607421875,""relative-y"":0.16319444444444445,""elapse-time"":1482.5350000000908},{""relative-x"":-1.13427734375,""relative-y"":0.17100694444444445,""elapse-time"":1507.9000000000524},{""relative-x"":-1.71240234375,""relative-y"":-0.6657986111111112,""elapse-time"":1534.3950000000186},{""relative-x"":0.0439453125,""relative-y"":-0.09375,""elapse-time"":1565.6499999999942},{""relative-x"":-0.71337890625,""relative-y"":-0.4522569444444444,""elapse-time"":1591.4850000000297},{""relative-x"":0.17919921875,""relative-y"":-0.10416666666666667,""elapse-time"":1615.945000000007},{""relative-x"":1.01318359375,""relative-y"":0.4921875,""elapse-time"":1645.2600000000093},{""relative-x"":0.7734375,""relative-y"":0.4088541666666667,""elapse-time"":1671.885000000082},{""relative-x"":0.97119140625,""relative-y"":0.5434027777777778,""elapse-time"":1698.6800000000803},{""relative-x"":0.62255859375,""relative-y"":0.3758680555555556,""elapse-time"":1724.050000000032},{""relative-x"":1.435546875,""relative-y"":0.1371527777777778,""elapse-time"":1754.3750000000873},{""relative-x"":1.0791015625,""relative-y"":0.2743055555555556,""elapse-time"":1780.9750000000058},{""relative-x"":0.2138671875,""relative-y"":-0.1293402777777778,""elapse-time"":1808.0200000000477},{""relative-x"":0.42822265625,""relative-y"":0.14322916666666666,""elapse-time"":2109.8300000001036},{""relative-x"":0.4443359375,""relative-y"":0.078125,""elapse-time"":2160.6700000000856},{""relative-x"":-0.0458984375,""relative-y"":0.19791666666666666,""elapse-time"":3226.865000000078},{""relative-x"":-0.52734375,""relative-y"":-0.033854166666666664,""elapse-time"":3268.5750000000553},{""relative-x"":-0.03662109375,""relative-y"":0.1701388888888889,""elapse-time"":3296.064999999988},{""relative-x"":1.30078125,""relative-y"":0.1423611111111111,""elapse-time"":3327.0950000000885},{""relative-x"":1.27197265625,""relative-y"":0.4713541666666667,""elapse-time"":3354.5250000000815},{""relative-x"":1.3701171875,""relative-y"":0.5868055555555556,""elapse-time"":3379.99500000001},{""relative-x"":1.189453125,""relative-y"":0.5876736111111112,""elapse-time"":3406.24500000001},{""relative-x"":1.11279296875,""relative-y"":0.5338541666666666,""elapse-time"":3433.8100000000995},{""relative-x"":1.45166015625,""relative-y"":0.6675347222222222,""elapse-time"":3457.870000000068},{""relative-x"":0.5322265625,""relative-y"":0.2899305555555556,""elapse-time"":3486.070000000036},{""relative-x"":0.8818359375,""relative-y"":0.4401041666666667,""elapse-time"":3516.580000000089},{""relative-x"":0.78955078125,""relative-y"":0.3246527777777778,""elapse-time"":3542.6150000000634},{""relative-x"":1.24462890625,""relative-y"":0.3489583333333333,""elapse-time"":3567.7100000000355}]}","""","""","""","""","""","2021-01-13 17:40:08",,"Mozilla/5.0 (Windows NT 10.0; Win64; x64) AppleWebKit/537.36 (KHTML, like Gecko) Chrome/87.0.4280.141 Safari/537.36",WebKit,Chrome,87.0.4280.141,Windows,10.0
3,1,null,"""","""","""","""",html-keyboard-response,24,104682,0.0-12.0-2.0-0.5,412,0,0,"Logitech HD Webcam C310 (046d:081b)",4617013f47ced26b4374220a05f53b26b46cde178f98b7605b02151d56d7f045,30,0.0010416666666666667,960,1280,$4,"15 days","""",null,"""","""","""","""","""","""","""","""","""","""","""","2021-01-13 17:40:08",,"Mozilla/5.0 (Windows NT 10.0; Win64; x64) AppleWebKit/537.36 (KHTML, like Gecko) Chrome/87.0.4280.141 Safari/537.36",WebKit,Chrome,87.0.4280.141,Windows,10.0
3,1,"""","""","""",2048,1152,eyetracking-calibration,25,108024,0.0-12.0-2.0-1.5,412,0,0,"Logitech HD Webcam C310 (046d:081b)",4617013f47ced26b4374220a05f53b26b46cde178f98b7605b02151d56d7f045,30,0.0010416666666666667,960,1280,$4,"15 days","""","""","""",0.5,0.5,0,0,"{""history"":[{""relative-x"":0.60107421875,""relative-y"":0.22135416666666666,""elapse-time"":67.27499999999418},{""relative-x"":0.78369140625,""relative-y"":0.2951388888888889,""elapse-time"":95.90000000002328},{""relative-x"":0.7900390625,""relative-y"":0.23350694444444445,""elapse-time"":120.69499999994878},{""relative-x"":0.80224609375,""relative-y"":0.12760416666666666,""elapse-time"":147.2049999999872},{""relative-x"":0.63671875,""relative-y"":0.109375,""elapse-time"":172.7999999999447},{""relative-x"":0.57080078125,""relative-y"":0.06684027777777778,""elapse-time"":217.84500000001572},{""relative-x"":0.56298828125,""relative-y"":0.17447916666666666,""elapse-time"":248.60999999998603},{""relative-x"":0.62646484375,""relative-y"":0.14930555555555555,""elapse-time"":275.7000000000262},{""relative-x"":0.61572265625,""relative-y"":0.2612847222222222,""elapse-time"":304.6499999999214},{""relative-x"":0.599609375,""relative-y"":0.2864583333333333,""elapse-time"":330.30999999993946},{""relative-x"":0.55517578125,""relative-y"":0.4166666666666667,""elapse-time"":358.9849999999569},{""relative-x"":0.55517578125,""relative-y"":0.4166666666666667,""elapse-time"":384.1449999999895},{""relative-x"":0.9912109375,""relative-y"":0.4019097222222222,""elapse-time"":415.55499999992026},{""relative-x"":0.93115234375,""relative-y"":0.4496527777777778,""elapse-time"":441.434999999954},{""relative-x"":0.5986328125,""relative-y"":0.5815972222222222,""elapse-time"":471.86499999997613},{""relative-x"":0.48583984375,""relative-y"":0.3567708333333333,""elapse-time"":523.9699999999575},{""relative-x"":0.62255859375,""relative-y"":0.4618055555555556,""elapse-time"":568.8549999999814},{""relative-x"":0.62353515625,""relative-y"":0.4210069444444444,""elapse-time"":595.2549999999464},{""relative-x"":1.0556640625,""relative-y"":0.5060763888888888,""elapse-time"":642.6199999999662},{""relative-x"":0.958984375,""relative-y"":0.4730902777777778,""elapse-time"":675.2450000000099},{""relative-x"":0.8173828125,""relative-y"":0.5833333333333334,""elapse-time"":712.4900000000052},{""relative-x"":0.8173828125,""relative-y"":0.5833333333333334,""elapse-time"":740.535000000018},{""relative-x"":0.90869140625,""relative-y"":0.4982638888888889,""elapse-time"":770.7500000000146},{""relative-x"":0.60205078125,""relative-y"":0.4097222222222222,""elapse-time"":797.699999999968},{""relative-x"":0.69189453125,""relative-y"":0.2881944444444444,""elapse-time"":825.5950000000157},{""relative-x"":0.69189453125,""relative-y"":0.2881944444444444,""elapse-time"":850.5999999999913},{""relative-x"":0.69189453125,""relative-y"":0.2881944444444444,""elapse-time"":877.8849999999948},{""relative-x"":1.177734375,""relative-y"":0.4913194444444444,""elapse-time"":1200.1249999999563},{""relative-x"":0.470703125,""relative-y"":0.2864583333333333,""elapse-time"":1262.0550000000367},{""relative-x"":0.466796875,""relative-y"":0.24739583333333334,""elapse-time"":1301.259999999951},{""relative-x"":0.7412109375,""relative-y"":0.3402777777777778,""elapse-time"":1329.129999999961},{""relative-x"":0.6875,""relative-y"":0.4027777777777778,""elapse-time"":1357.6500000000378},{""relative-x"":0.53564453125,""relative-y"":0.2569444444444444,""elapse-time"":1382.279999999926},{""relative-x"":0.47021484375,""relative-y"":0.2013888888888889,""elapse-time"":1409.6600000000326},{""relative-x"":0.4326171875,""relative-y"":0.5112847222222222,""elapse-time"":1443.9449999999779},{""relative-x"":0.45849609375,""relative-y"":0.4409722222222222,""elapse-time"":1469.4049999999406},{""relative-x"":0.45458984375,""relative-y"":0.4704861111111111,""elapse-time"":1495.949999999997},{""relative-x"":0.3388671875,""relative-y"":0.23697916666666666,""elapse-time"":1525.1399999999703},{""relative-x"":0.52392578125,""relative-y"":0.3697916666666667,""elapse-time"":1552.3799999999756},{""relative-x"":0.43212890625,""relative-y"":0.2265625,""elapse-time"":1579.839999999982},{""relative-x"":0.4130859375,""relative-y"":0.5008680555555556,""elapse-time"":1610.2650000000285},{""relative-x"":0.4130859375,""relative-y"":0.5008680555555556,""elapse-time"":1639.0400000000227},{""relative-x"":0.4697265625,""relative-y"":0.5043402777777778,""elapse-time"":1664.8099999999831},{""relative-x"":0.42529296875,""relative-y"":0.4661458333333333,""elapse-time"":1692.4799999999377},{""relative-x"":0.47607421875,""relative-y"":0.4991319444444444,""elapse-time"":1717.8850000000239},{""relative-x"":0.47607421875,""relative-y"":0.4991319444444444,""elapse-time"":1744.579999999929},{""relative-x"":0.50927734375,""relative-y"":0.5355902777777778,""elapse-time"":1776.070000000007},{""relative-x"":0.44482421875,""relative-y"":0.3498263888888889,""elapse-time"":1802.140000000014},{""relative-x"":0.44482421875,""relative-y"":0.3498263888888889,""elapse-time"":1827.5149999999412},{""relative-x"":0.40673828125,""relative-y"":0.3845486111111111,""elapse-time"":1853.8250000000262},{""relative-x"":0.48974609375,""relative-y"":0.5130208333333334,""elapse-time"":1878.1599999999744},{""relative-x"":0.48974609375,""relative-y"":0.5130208333333334,""elapse-time"":1905.149999999936},{""relative-x"":0.4658203125,""relative-y"":0.5069444444444444,""elapse-time"":1931.0899999999237},{""relative-x"":0.4111328125,""relative-y"":0.5355902777777778,""elapse-time"":1961.1800000000076},{""relative-x"":0.4111328125,""relative-y"":0.5355902777777778,""elapse-time"":1986.5549999999494},{""relative-x"":0.4638671875,""relative-y"":0.4418402777777778,""elapse-time"":2014.0549999999785},{""relative-x"":0.4638671875,""relative-y"":0.4418402777777778,""elapse-time"":2040.2799999999406},{""relative-x"":0.4013671875,""relative-y"":0.2638888888888889,""elapse-time"":2065.8650000000343},{""relative-x"":0.537109375,""relative-y"":0.4513888888888889,""elapse-time"":2091.7349999999715},{""relative-x"":0.44287109375,""relative-y"":0.4314236111111111,""elapse-time"":2127.9049999999406},{""relative-x"":0.44287109375,""relative-y"":0.4314236111111111,""elapse-time"":2152.67499999993},{""relative-x"":0.53076171875,""relative-y"":0.5225694444444444,""elapse-time"":2182.2149999999237},{""relative-x"":0.53515625,""relative-y"":0.5572916666666666,""elapse-time"":2207.694999999949},{""relative-x"":0.623046875,""relative-y"":0.5034722222222222,""elapse-time"":2233.4999999999272},{""relative-x"":0.4638671875,""relative-y"":0.5460069444444444,""elapse-time"":2259.315000000017},{""relative-x"":0.462890625,""relative-y"":0.4748263888888889,""elapse-time"":2289.789999999921},{""relative-x"":0.41796875,""relative-y"":0.4079861111111111,""elapse-time"":2315.1749999999593},{""relative-x"":0.61669921875,""relative-y"":0.2109375,""elapse-time"":2629.8899999999267},{""relative-x"":0.40185546875,""relative-y"":0.3532986111111111,""elapse-time"":2688.445000000007},{""relative-x"":0.48388671875,""relative-y"":0.625,""elapse-time"":2725.50999999998},{""relative-x"":0.34716796875,""relative-y"":0.4852430555555556,""elapse-time"":2755.059999999954},{""relative-x"":0.6083984375,""relative-y"":0.5963541666666666,""elapse-time"":2806.934999999954},{""relative-x"":0.70703125,""relative-y"":0.4973958333333333,""elapse-time"":2839.6299999999464},{""relative-x"":0.857421875,""relative-y"":0.5329861111111112,""elapse-time"":2871.2849999999453},{""relative-x"":0.3154296875,""relative-y"":0.3819444444444444,""elapse-time"":2899.3550000000105},{""relative-x"":0.580078125,""relative-y"":0.4296875,""elapse-time"":2938.935000000012},{""relative-x"":0.42138671875,""relative-y"":0.4418402777777778,""elapse-time"":2965.579999999929},{""relative-x"":0.4111328125,""relative-y"":0.3836805555555556,""elapse-time"":2998.5500000000175},{""relative-x"":0.6494140625,""relative-y"":0.24305555555555555,""elapse-time"":3025.724999999962},{""relative-x"":0.6279296875,""relative-y"":0.2630208333333333,""elapse-time"":3055.780000000028},{""relative-x"":0.65576171875,""relative-y"":0.7152777777777778,""elapse-time"":3094.4099999999307},{""relative-x"":0.6708984375,""relative-y"":0.5972222222222222,""elapse-time"":3123.5550000000076},{""relative-x"":0.658203125,""relative-y"":0.5815972222222222,""elapse-time"":3154.7649999999994},{""relative-x"":0.67626953125,""relative-y"":0.5598958333333334,""elapse-time"":3191.5400000000373},{""relative-x"":0.64501953125,""relative-y"":0.5390625,""elapse-time"":3230.5599999999686},{""relative-x"":0.59814453125,""relative-y"":0.5295138888888888,""elapse-time"":3274.130000000019},{""relative-x"":0.66162109375,""relative-y"":0.6371527777777778,""elapse-time"":3305.434999999983},{""relative-x"":0.56005859375,""relative-y"":0.4791666666666667,""elapse-time"":3332.2100000000355}]}","""","""","""","""","""","2021-01-13 17:40:08",,"Mozilla/5.0 (Windows NT 10.0; Win64; x64) AppleWebKit/537.36 (KHTML, like Gecko) Chrome/87.0.4280.141 Safari/537.36",WebKit,Chrome,87.0.4280.141,Windows,10.0
3,1,null,"""","""","""","""",html-keyboard-response,26,109527,0.0-12.0-2.0-0.6,412,0,0,"Logitech HD Webcam C310 (046d:081b)",4617013f47ced26b4374220a05f53b26b46cde178f98b7605b02151d56d7f045,30,0.0010416666666666667,960,1280,$4,"15 days","""",null,"""","""","""","""","""","""","""","""","""","""","""","2021-01-13 17:40:08",,"Mozilla/5.0 (Windows NT 10.0; Win64; x64) AppleWebKit/537.36 (KHTML, like Gecko) Chrome/87.0.4280.141 Safari/537.36",WebKit,Chrome,87.0.4280.141,Windows,10.0
3,1,"""","""","""",2048,1152,eyetracking-calibration,27,113289,0.0-12.0-2.0-1.6,412,0,0,"Logitech HD Webcam C310 (046d:081b)",4617013f47ced26b4374220a05f53b26b46cde178f98b7605b02151d56d7f045,30,0.0010416666666666667,960,1280,$4,"15 days","""","""","""",0.65,0.65,0,0,"{""history"":[{""relative-x"":0.63134765625,""relative-y"":0.4730902777777778,""elapse-time"":58.50499999997555},{""relative-x"":0.58154296875,""relative-y"":0.3767361111111111,""elapse-time"":92.43500000002678},{""relative-x"":0.58154296875,""relative-y"":0.3767361111111111,""elapse-time"":120.86499999999069},{""relative-x"":0.3740234375,""relative-y"":0.1953125,""elapse-time"":145.58000000000175},{""relative-x"":0.5146484375,""relative-y"":0.2126736111111111,""elapse-time"":170.01499999992666},{""relative-x"":0.35107421875,""relative-y"":0.10243055555555555,""elapse-time"":195.47999999998137},{""relative-x"":0.27880859375,""relative-y"":0.3159722222222222,""elapse-time"":220.81500000001688},{""relative-x"":0.51611328125,""relative-y"":0.4696180555555556,""elapse-time"":249.93999999992957},{""relative-x"":0.51806640625,""relative-y"":0.5095486111111112,""elapse-time"":281.629999999961},{""relative-x"":0.42236328125,""relative-y"":0.3524305555555556,""elapse-time"":306.11999999996624},{""relative-x"":0.55029296875,""relative-y"":0.5399305555555556,""elapse-time"":335.33000000000175},{""relative-x"":0.37841796875,""relative-y"":0.4609375,""elapse-time"":361.204999999929},{""relative-x"":0.57861328125,""relative-y"":0.5711805555555556,""elapse-time"":389.57499999992433},{""relative-x"":0.689453125,""relative-y"":0.5677083333333334,""elapse-time"":416.4399999999732},{""relative-x"":0.71533203125,""relative-y"":0.6189236111111112,""elapse-time"":446.4699999999866},{""relative-x"":0.68994140625,""relative-y"":0.640625,""elapse-time"":471.97499999993306},{""relative-x"":0.779296875,""relative-y"":0.3784722222222222,""elapse-time"":502.18999999992957},{""relative-x"":0.779296875,""relative-y"":0.3784722222222222,""elapse-time"":528.6599999999453},{""relative-x"":0.64794921875,""relative-y"":0.6267361111111112,""elapse-time"":559.0499999999593},{""relative-x"":0.59033203125,""relative-y"":0.1701388888888889,""elapse-time"":869.5599999999831},{""relative-x"":0.955078125,""relative-y"":0.6840277777777778,""elapse-time"":918.6149999999325},{""relative-x"":0.92822265625,""relative-y"":0.5026041666666666,""elapse-time"":945.2000000000116},{""relative-x"":0.48583984375,""relative-y"":0.5008680555555556,""elapse-time"":976.0549999999785},{""relative-x"":0.79150390625,""relative-y"":0.4114583333333333,""elapse-time"":1003.4349999999686},{""relative-x"":0.63720703125,""relative-y"":0.5694444444444444,""elapse-time"":1034.2549999999173},{""relative-x"":0.7529296875,""relative-y"":0.6319444444444444,""elapse-time"":1091.7999999999302},{""relative-x"":0.70361328125,""relative-y"":0.6901041666666666,""elapse-time"":1122.8049999999785},{""relative-x"":0.64892578125,""relative-y"":0.65625,""elapse-time"":1153.6249999999272},{""relative-x"":0.66748046875,""relative-y"":0.5121527777777778,""elapse-time"":1178.3349999999482},{""relative-x"":0.8193359375,""relative-y"":0.5104166666666666,""elapse-time"":1203.6449999999459},{""relative-x"":0.8212890625,""relative-y"":-0.04861111111111111,""elapse-time"":1231.7200000000012},{""relative-x"":0.5703125,""relative-y"":0.0720486111111111,""elapse-time"":1256.395000000004},{""relative-x"":0.63720703125,""relative-y"":0.03125,""elapse-time"":1285.0599999999395},{""relative-x"":0.48681640625,""relative-y"":0.6536458333333334,""elapse-time"":1318.4299999999348},{""relative-x"":0.45166015625,""relative-y"":0.34375,""elapse-time"":1343.5549999999348},{""relative-x"":0.486328125,""relative-y"":0.6458333333333334,""elapse-time"":1368.7400000000052},{""relative-x"":0.2001953125,""relative-y"":0.1111111111111111,""elapse-time"":1398.9950000000244},{""relative-x"":0.29443359375,""relative-y"":0.3741319444444444,""elapse-time"":1423.3199999999924},{""relative-x"":0.30224609375,""relative-y"":0.5026041666666666,""elapse-time"":1452.5649999999441},{""relative-x"":0.56201171875,""relative-y"":0.5,""elapse-time"":1479.3599999999278},{""relative-x"":0.57861328125,""relative-y"":0.7170138888888888,""elapse-time"":1510.8900000000285},{""relative-x"":0.85888671875,""relative-y"":0.7291666666666666,""elapse-time"":1538.0149999999849},{""relative-x"":0.92578125,""relative-y"":0.7265625,""elapse-time"":1565.929999999993},{""relative-x"":0.8447265625,""relative-y"":0.8177083333333334,""elapse-time"":1590.3149999999296},{""relative-x"":0.927734375,""relative-y"":0.6753472222222222,""elapse-time"":1616.8099999999977},{""relative-x"":0.64306640625,""relative-y"":0.5460069444444444,""elapse-time"":1641.5600000000268},{""relative-x"":0.68212890625,""relative-y"":0.6475694444444444,""elapse-time"":1672.0699999999633},{""relative-x"":0.78759765625,""relative-y"":0.6684027777777778,""elapse-time"":1696.8749999999854},{""relative-x"":0.84375,""relative-y"":0.7265625,""elapse-time"":1725.0149999999849},{""relative-x"":0.72021484375,""relative-y"":0.5746527777777778,""elapse-time"":1750.7399999999616},{""relative-x"":0.72021484375,""relative-y"":0.5746527777777778,""elapse-time"":1778.429999999964},{""relative-x"":0.72021484375,""relative-y"":0.5746527777777778,""elapse-time"":1804.4300000000367},{""relative-x"":0.779296875,""relative-y"":0.7534722222222222,""elapse-time"":1836.16499999995},{""relative-x"":0.779296875,""relative-y"":0.7534722222222222,""elapse-time"":1862.5149999999267},{""relative-x"":0.7568359375,""relative-y"":0.7005208333333334,""elapse-time"":1888.104999999996},{""relative-x"":0.7568359375,""relative-y"":0.7005208333333334,""elapse-time"":1915.5650000000169},{""relative-x"":0.7890625,""relative-y"":0.8020833333333334,""elapse-time"":1941.2949999999691},{""relative-x"":0.78515625,""relative-y"":0.7873263888888888,""elapse-time"":1968.5849999999627},{""relative-x"":0.8525390625,""relative-y"":0.734375,""elapse-time"":1998.3750000000146},{""relative-x"":0.8369140625,""relative-y"":0.65625,""elapse-time"":2345.709999999948},{""relative-x"":0.80615234375,""relative-y"":0.7404513888888888,""elapse-time"":2412.3099999999395},{""relative-x"":0.9208984375,""relative-y"":0.5642361111111112,""elapse-time"":2441.2699999999313},{""relative-x"":0.8681640625,""relative-y"":0.4713541666666667,""elapse-time"":2471.0199999999604},{""relative-x"":0.61767578125,""relative-y"":0.6744791666666666,""elapse-time"":2502.914999999921},{""relative-x"":0.6005859375,""relative-y"":0.5789930555555556,""elapse-time"":2530.0300000000134},{""relative-x"":0.5986328125,""relative-y"":0.7352430555555556,""elapse-time"":2557.739999999976},{""relative-x"":0.63037109375,""relative-y"":0.6015625,""elapse-time"":2588.3450000000157},{""relative-x"":0.72705078125,""relative-y"":0.6536458333333334,""elapse-time"":2615.4249999999593},{""relative-x"":0.8671875,""relative-y"":0.8098958333333334,""elapse-time"":2640.625},{""relative-x"":0.62255859375,""relative-y"":0.3897569444444444,""elapse-time"":2676.915000000008},{""relative-x"":0.21533203125,""relative-y"":0.3784722222222222,""elapse-time"":2702.78499999996},{""relative-x"":0.376953125,""relative-y"":0.5147569444444444,""elapse-time"":2727.824999999939},{""relative-x"":0.95458984375,""relative-y"":0.1831597222222222,""elapse-time"":2756.494999999981},{""relative-x"":1.12158203125,""relative-y"":0.4583333333333333,""elapse-time"":2786.515000000014},{""relative-x"":1.10302734375,""relative-y"":-0.4019097222222222,""elapse-time"":2813.864999999976},{""relative-x"":0.85888671875,""relative-y"":0.21180555555555555,""elapse-time"":2846.3499999999185},{""relative-x"":0.6728515625,""relative-y"":0.6085069444444444,""elapse-time"":2877.589999999953},{""relative-x"":0.6669921875,""relative-y"":0.5659722222222222,""elapse-time"":2903.884999999951},{""relative-x"":0.92626953125,""relative-y"":0.6232638888888888,""elapse-time"":2930.1550000000134},{""relative-x"":0.9716796875,""relative-y"":0.6440972222222222,""elapse-time"":2957.6349999999948},{""relative-x"":0.62158203125,""relative-y"":0.3177083333333333,""elapse-time"":2984.4349999999686},{""relative-x"":0.62158203125,""relative-y"":0.3177083333333333,""elapse-time"":3013.1749999999447},{""relative-x"":0.6875,""relative-y"":0.3098958333333333,""elapse-time"":3043.765000000014},{""relative-x"":0.4775390625,""relative-y"":0.3515625,""elapse-time"":3072.050000000003},{""relative-x"":0.8525390625,""relative-y"":0.03993055555555555,""elapse-time"":3099.5050000000338},{""relative-x"":0.93408203125,""relative-y"":0.3506944444444444,""elapse-time"":3714.804999999964},{""relative-x"":0.5146484375,""relative-y"":0.6232638888888888,""elapse-time"":3750.149999999965}]}","""","""","""","""","""","2021-01-13 17:40:08",,"Mozilla/5.0 (Windows NT 10.0; Win64; x64) AppleWebKit/537.36 (KHTML, like Gecko) Chrome/87.0.4280.141 Safari/537.36",WebKit,Chrome,87.0.4280.141,Windows,10.0
3,1,null,"""","""","""","""",html-keyboard-response,28,114791,0.0-12.0-2.0-0.7,412,0,0,"Logitech HD Webcam C310 (046d:081b)",4617013f47ced26b4374220a05f53b26b46cde178f98b7605b02151d56d7f045,30,0.0010416666666666667,960,1280,$4,"15 days","""",null,"""","""","""","""","""","""","""","""","""","""","""","2021-01-13 17:40:08",,"Mozilla/5.0 (Windows NT 10.0; Win64; x64) AppleWebKit/537.36 (KHTML, like Gecko) Chrome/87.0.4280.141 Safari/537.36",WebKit,Chrome,87.0.4280.141,Windows,10.0
3,1,"""","""","""",2048,1152,eyetracking-calibration,29,118315,0.0-12.0-2.0-1.7,412,0,0,"Logitech HD Webcam C310 (046d:081b)",4617013f47ced26b4374220a05f53b26b46cde178f98b7605b02151d56d7f045,30,0.0010416666666666667,960,1280,$4,"15 days","""","""","""",0.2,0.8,0,0,"{""history"":[{""relative-x"":0.4814453125,""relative-y"":-0.4730902777777778,""elapse-time"":75.64999999999418},{""relative-x"":0.3037109375,""relative-y"":-0.5104166666666666,""elapse-time"":134.8649999999907},{""relative-x"":0.255859375,""relative-y"":0.3923611111111111,""elapse-time"":165.6649999999936},{""relative-x"":0.318359375,""relative-y"":0.6128472222222222,""elapse-time"":209.6999999999971},{""relative-x"":0.83740234375,""relative-y"":0.1328125,""elapse-time"":1192.3350000000792},{""relative-x"":-0.15087890625,""relative-y"":0.10677083333333333,""elapse-time"":1240.4200000000856},{""relative-x"":0.45458984375,""relative-y"":0.3975694444444444,""elapse-time"":1266.6649999999936},{""relative-x"":0.15869140625,""relative-y"":0.5737847222222222,""elapse-time"":1300.1300000000774},{""relative-x"":0.07373046875,""relative-y"":0.3055555555555556,""elapse-time"":1328.4300000000221},{""relative-x"":0.11279296875,""relative-y"":0.6579861111111112,""elapse-time"":1354.6999999999825},{""relative-x"":0.52294921875,""relative-y"":0.3046875,""elapse-time"":1383.3550000000541},{""relative-x"":0.552734375,""relative-y"":0.6449652777777778,""elapse-time"":1413.7550000000338},{""relative-x"":0.3896484375,""relative-y"":0.5555555555555556,""elapse-time"":1445.260000000082},{""relative-x"":0.1689453125,""relative-y"":0.3958333333333333,""elapse-time"":1474.0199999999895},{""relative-x"":0.23046875,""relative-y"":0.5321180555555556,""elapse-time"":1499.8150000000169},{""relative-x"":0.21533203125,""relative-y"":0.8159722222222222,""elapse-time"":1531.1450000000332},{""relative-x"":0.40185546875,""relative-y"":0.7586805555555556,""elapse-time"":1558.750000000029},{""relative-x"":0.908203125,""relative-y"":0.5998263888888888,""elapse-time"":1616.5650000000314},{""relative-x"":0.4638671875,""relative-y"":0.3741319444444444,""elapse-time"":1650.3250000000698},{""relative-x"":0.9091796875,""relative-y"":0.7248263888888888,""elapse-time"":1677.6750000000175},{""relative-x"":0.70166015625,""relative-y"":1.1336805555555556,""elapse-time"":1705.6900000000023},{""relative-x"":0.70166015625,""relative-y"":1.1336805555555556,""elapse-time"":1731.8800000000483},{""relative-x"":0.25830078125,""relative-y"":0.6440972222222222,""elapse-time"":1769.7900000000518},{""relative-x"":0.26806640625,""relative-y"":0.4973958333333333,""elapse-time"":1800.190000000046},{""relative-x"":0.06689453125,""relative-y"":0.5633680555555556,""elapse-time"":1828.2300000000832},{""relative-x"":0.20556640625,""relative-y"":0.1909722222222222,""elapse-time"":1855.9599999999773},{""relative-x"":-0.14990234375,""relative-y"":0.2586805555555556,""elapse-time"":1884.6750000000175}]}","""","""","""","""","""","2021-01-13 17:40:08",,"Mozilla/5.0 (Windows NT 10.0; Win64; x64) AppleWebKit/537.36 (KHTML, like Gecko) Chrome/87.0.4280.141 Safari/537.36",WebKit,Chrome,87.0.4280.141,Windows,10.0
3,1,null,"""","""","""","""",html-keyboard-response,30,119818,0.0-12.0-2.0-0.8,412,0,0,"Logitech HD Webcam C310 (046d:081b)",4617013f47ced26b4374220a05f53b26b46cde178f98b7605b02151d56d7f045,30,0.0010416666666666667,960,1280,$4,"15 days","""",null,"""","""","""","""","""","""","""","""","""","""","""","2021-01-13 17:40:08",,"Mozilla/5.0 (Windows NT 10.0; Win64; x64) AppleWebKit/537.36 (KHTML, like Gecko) Chrome/87.0.4280.141 Safari/537.36",WebKit,Chrome,87.0.4280.141,Windows,10.0
3,1,"""","""","""",2048,1152,eyetracking-calibration,31,123653,0.0-12.0-2.0-1.8,412,0,0,"Logitech HD Webcam C310 (046d:081b)",4617013f47ced26b4374220a05f53b26b46cde178f98b7605b02151d56d7f045,30,0.0010416666666666667,960,1280,$4,"15 days","""","""","""",0.8,0.8,0,0,"{""history"":[{""relative-x"":1.150390625,""relative-y"":0.1284722222222222,""elapse-time"":2116.5850000000937},{""relative-x"":0.79443359375,""relative-y"":0.8125,""elapse-time"":2155.2149999999965},{""relative-x"":0.4775390625,""relative-y"":0.3576388888888889,""elapse-time"":2186.8650000000052},{""relative-x"":0.2734375,""relative-y"":0.7413194444444444,""elapse-time"":2215.115000000078},{""relative-x"":0.435546875,""relative-y"":0.3793402777777778,""elapse-time"":2240.4050000000134},{""relative-x"":0.39013671875,""relative-y"":0.3585069444444444,""elapse-time"":2268.5400000000227},{""relative-x"":0.626953125,""relative-y"":0.13802083333333334,""elapse-time"":2294.4600000000646},{""relative-x"":0.81005859375,""relative-y"":0.8211805555555556,""elapse-time"":2326.3550000000396},{""relative-x"":0.54638671875,""relative-y"":0.7421875,""elapse-time"":2353.9150000000227},{""relative-x"":0.65673828125,""relative-y"":0.7864583333333334,""elapse-time"":2381.2550000000047},{""relative-x"":0.42236328125,""relative-y"":-0.20833333333333334,""elapse-time"":2409.1300000000047},{""relative-x"":0.134765625,""relative-y"":0.5633680555555556,""elapse-time"":2436.8950000000477},{""relative-x"":0.04833984375,""relative-y"":0.4270833333333333,""elapse-time"":2464.5350000000763},{""relative-x"":0.4365234375,""relative-y"":0.7074652777777778,""elapse-time"":2498.0950000000303},{""relative-x"":0.96435546875,""relative-y"":-0.4201388888888889,""elapse-time"":2526.1649999999936},{""relative-x"":0.9443359375,""relative-y"":-0.6024305555555556,""elapse-time"":2553.6250000000146},{""relative-x"":0.41064453125,""relative-y"":0.04774305555555555,""elapse-time"":2580.950000000026},{""relative-x"":-0.20166015625,""relative-y"":0.3133680555555556,""elapse-time"":2607.840000000011},{""relative-x"":0.201171875,""relative-y"":0.8194444444444444,""elapse-time"":2635.3550000000105},{""relative-x"":0.8076171875,""relative-y"":1.2934027777777777,""elapse-time"":2667.7500000000728},{""relative-x"":0.9013671875,""relative-y"":0.1675347222222222,""elapse-time"":2696.279999999999},{""relative-x"":0.9873046875,""relative-y"":0.2612847222222222,""elapse-time"":2723.520000000004},{""relative-x"":-0.18798828125,""relative-y"":-2.7578125,""elapse-time"":2752.5900000000547},{""relative-x"":-0.20751953125,""relative-y"":-1.6336805555555556,""elapse-time"":2779.505000000092},{""relative-x"":0.275390625,""relative-y"":-2.0755208333333335,""elapse-time"":2807.2650000000285},{""relative-x"":0.287109375,""relative-y"":-0.026041666666666668,""elapse-time"":2840.4350000000704},{""relative-x"":0.228515625,""relative-y"":-0.2734375,""elapse-time"":2867.320000000065},{""relative-x"":0.693359375,""relative-y"":-0.3324652777777778,""elapse-time"":2894.7850000000763},{""relative-x"":1.38232421875,""relative-y"":-0.10069444444444445,""elapse-time"":2922.8000000000466},{""relative-x"":0.302734375,""relative-y"":-1.2118055555555556,""elapse-time"":2949.6149999999907},{""relative-x"":0.9970703125,""relative-y"":0.6284722222222222,""elapse-time"":2978.8500000000786},{""relative-x"":2.11572265625,""relative-y"":-1.546875,""elapse-time"":3008.649999999994},{""relative-x"":0.4716796875,""relative-y"":0.1605902777777778,""elapse-time"":3043.1900000000896},{""relative-x"":1.07763671875,""relative-y"":1.8645833333333333,""elapse-time"":3069.880000000019},{""relative-x"":0.37646484375,""relative-y"":1.7256944444444444,""elapse-time"":3099.805000000066},{""relative-x"":0.93994140625,""relative-y"":2.0260416666666665,""elapse-time"":3125.910000000091},{""relative-x"":0.80419921875,""relative-y"":1.546875,""elapse-time"":3153.1250000000437},{""relative-x"":2.54931640625,""relative-y"":1.4210069444444444,""elapse-time"":3181.3250000000116},{""relative-x"":0.498046875,""relative-y"":0.375,""elapse-time"":3213.4950000000827},{""relative-x"":0.94775390625,""relative-y"":0.019097222222222224,""elapse-time"":3239.36500000002},{""relative-x"":0.84619140625,""relative-y"":0.546875,""elapse-time"":3541.180000000051},{""relative-x"":1.03662109375,""relative-y"":0.21961805555555555,""elapse-time"":3588.720000000074},{""relative-x"":0.5576171875,""relative-y"":0.8342013888888888,""elapse-time"":3625.695000000065},{""relative-x"":0.41845703125,""relative-y"":0.4973958333333333,""elapse-time"":3654.445000000007},{""relative-x"":0.6796875,""relative-y"":0.6935763888888888,""elapse-time"":3682.170000000042},{""relative-x"":0.45458984375,""relative-y"":0.9739583333333334,""elapse-time"":3709.410000000047},{""relative-x"":0.919921875,""relative-y"":0.4071180555555556,""elapse-time"":3741.0450000001},{""relative-x"":0.80322265625,""relative-y"":0.3940972222222222,""elapse-time"":3768.655000000086},{""relative-x"":0.28466796875,""relative-y"":-0.3706597222222222,""elapse-time"":3797.845000000045},{""relative-x"":0.37158203125,""relative-y"":-0.5833333333333334,""elapse-time"":3826.1900000000023}]}","""","""","""","""","""","2021-01-13 17:40:08",,"Mozilla/5.0 (Windows NT 10.0; Win64; x64) AppleWebKit/537.36 (KHTML, like Gecko) Chrome/87.0.4280.141 Safari/537.36",WebKit,Chrome,87.0.4280.141,Windows,10.0
3,1,null,"""","""","""","""",html-keyboard-response,32,125156,0.0-12.0-2.0-0.9,412,0,0,"Logitech HD Webcam C310 (046d:081b)",4617013f47ced26b4374220a05f53b26b46cde178f98b7605b02151d56d7f045,30,0.0010416666666666667,960,1280,$4,"15 days","""",null,"""","""","""","""","""","""","""","""","""","""","""","2021-01-13 17:40:08",,"Mozilla/5.0 (Windows NT 10.0; Win64; x64) AppleWebKit/537.36 (KHTML, like Gecko) Chrome/87.0.4280.141 Safari/537.36",WebKit,Chrome,87.0.4280.141,Windows,10.0
3,1,"""","""","""",2048,1152,eyetracking-calibration,33,128859,0.0-12.0-2.0-1.9,412,0,0,"Logitech HD Webcam C310 (046d:081b)",4617013f47ced26b4374220a05f53b26b46cde178f98b7605b02151d56d7f045,30,0.0010416666666666667,960,1280,$4,"15 days","""","""","""",0.5,0.8,0,0,"{""history"":[{""relative-x"":0.2607421875,""relative-y"":0.17708333333333334,""elapse-time"":77.16000000004715},{""relative-x"":0.45849609375,""relative-y"":-0.034722222222222224,""elapse-time"":122.38000000001921},{""relative-x"":0.45849609375,""relative-y"":-0.034722222222222224,""elapse-time"":152.67000000005646},{""relative-x"":0.45849609375,""relative-y"":-0.034722222222222224,""elapse-time"":181.56499999998778},{""relative-x"":0.392578125,""relative-y"":0.3715277777777778,""elapse-time"":207.2100000000355},{""relative-x"":0.23876953125,""relative-y"":0.4930555555555556,""elapse-time"":233.33500000002095},{""relative-x"":0.41162109375,""relative-y"":0.15538194444444445,""elapse-time"":261.6750000000902},{""relative-x"":0.2841796875,""relative-y"":0.4045138888888889,""elapse-time"":289.25500000003376},{""relative-x"":-0.0087890625,""relative-y"":-0.4600694444444444,""elapse-time"":317.36000000001513},{""relative-x"":0.54052734375,""relative-y"":0.5572916666666666,""elapse-time"":347.4750000000349},{""relative-x"":0.65185546875,""relative-y"":0.7838541666666666,""elapse-time"":378.15000000000873},{""relative-x"":0.541015625,""relative-y"":0.4800347222222222,""elapse-time"":409.420000000071},{""relative-x"":0.548828125,""relative-y"":0.8532986111111112,""elapse-time"":438.13999999998487},{""relative-x"":-0.60498046875,""relative-y"":0.4045138888888889,""elapse-time"":1080.5950000000157},{""relative-x"":0.693359375,""relative-y"":0.7239583333333334,""elapse-time"":1139.5700000000506},{""relative-x"":0.18798828125,""relative-y"":1.0763888888888888,""elapse-time"":1168.0300000000425},{""relative-x"":-0.60986328125,""relative-y"":0.4088541666666667,""elapse-time"":1194.1750000000902},{""relative-x"":0.47900390625,""relative-y"":0.2109375,""elapse-time"":1222.4700000000448},{""relative-x"":0.32666015625,""relative-y"":0.1527777777777778,""elapse-time"":1257.9349999999831},{""relative-x"":0.65625,""relative-y"":0.9149305555555556,""elapse-time"":1288.234999999986},{""relative-x"":0.52001953125,""relative-y"":0.9123263888888888,""elapse-time"":1318.3050000000076},{""relative-x"":0.56201171875,""relative-y"":1.3298611111111112,""elapse-time"":1344.87999999999},{""relative-x"":1.24609375,""relative-y"":2.8116319444444446,""elapse-time"":1372.6500000000233},{""relative-x"":-0.1630859375,""relative-y"":-0.1032986111111111,""elapse-time"":1401.1500000000378},{""relative-x"":0.63671875,""relative-y"":1.6336805555555556,""elapse-time"":1432.9599999999773},{""relative-x"":1.0419921875,""relative-y"":1.9574652777777777,""elapse-time"":1461.175000000032},{""relative-x"":0.19873046875,""relative-y"":-0.06597222222222222,""elapse-time"":2303.0700000000506},{""relative-x"":0.19384765625,""relative-y"":1.171875,""elapse-time"":3389.515000000072},{""relative-x"":0.25048828125,""relative-y"":0.8116319444444444,""elapse-time"":3430.2750000000524},{""relative-x"":0.333984375,""relative-y"":1.4392361111111112,""elapse-time"":3460.390000000072},{""relative-x"":0.99951171875,""relative-y"":1.8116319444444444,""elapse-time"":3488.2549999999756},{""relative-x"":0.75341796875,""relative-y"":1.2482638888888888,""elapse-time"":3516.9950000000827},{""relative-x"":-0.0791015625,""relative-y"":0.6215277777777778,""elapse-time"":3549.4650000000547},{""relative-x"":0.140625,""relative-y"":0.8064236111111112,""elapse-time"":3576.6350000000093},{""relative-x"":0.3388671875,""relative-y"":0.8446180555555556,""elapse-time"":3605.1849999999977},{""relative-x"":0.37109375,""relative-y"":0.7638888888888888,""elapse-time"":3634.1600000000617},{""relative-x"":0.32861328125,""relative-y"":0.375,""elapse-time"":3661.3300000000163},{""relative-x"":0.03173828125,""relative-y"":0.3767361111111111,""elapse-time"":3694.945000000065}]}","""","""","""","""","""","2021-01-13 17:40:08",,"Mozilla/5.0 (Windows NT 10.0; Win64; x64) AppleWebKit/537.36 (KHTML, like Gecko) Chrome/87.0.4280.141 Safari/537.36",WebKit,Chrome,87.0.4280.141,Windows,10.0
3,1,null,"""","""","""","""",html-keyboard-response,34,130362,0.0-12.0-2.0-0.10,412,0,0,"Logitech HD Webcam C310 (046d:081b)",4617013f47ced26b4374220a05f53b26b46cde178f98b7605b02151d56d7f045,30,0.0010416666666666667,960,1280,$4,"15 days","""",null,"""","""","""","""","""","""","""","""","""","""","""","2021-01-13 17:40:08",,"Mozilla/5.0 (Windows NT 10.0; Win64; x64) AppleWebKit/537.36 (KHTML, like Gecko) Chrome/87.0.4280.141 Safari/537.36",WebKit,Chrome,87.0.4280.141,Windows,10.0
3,1,"""","""","""",2048,1152,eyetracking-calibration,35,134173,0.0-12.0-2.0-1.10,412,0,0,"Logitech HD Webcam C310 (046d:081b)",4617013f47ced26b4374220a05f53b26b46cde178f98b7605b02151d56d7f045,30,0.0010416666666666667,960,1280,$4,"15 days","""","""","""",0.2,0.5,0,0,"{""history"":[{""relative-x"":0.81005859375,""relative-y"":0.9027777777777778,""elapse-time"":53.21500000002561},{""relative-x"":1.1708984375,""relative-y"":-0.07291666666666667,""elapse-time"":81.67500000001746},{""relative-x"":0.896484375,""relative-y"":0.9982638888888888,""elapse-time"":132.66499999997905},{""relative-x"":1.859375,""relative-y"":-1.4878472222222223,""elapse-time"":165.97999999998137},{""relative-x"":0.5185546875,""relative-y"":-0.8289930555555556,""elapse-time"":197},{""relative-x"":0.2119140625,""relative-y"":1.2473958333333333,""elapse-time"":225.5099999999802},{""relative-x"":0.83056640625,""relative-y"":1.2725694444444444,""elapse-time"":258.0100000000093},{""relative-x"":0.55859375,""relative-y"":1.2473958333333333,""elapse-time"":285.46000000005006},{""relative-x"":0.37646484375,""relative-y"":-0.08072916666666667,""elapse-time"":317.5250000000233},{""relative-x"":-0.0517578125,""relative-y"":0.15885416666666666,""elapse-time"":345.9199999999837},{""relative-x"":0.439453125,""relative-y"":0,""elapse-time"":377.61999999996624},{""relative-x"":0.60986328125,""relative-y"":-1.1866319444444444,""elapse-time"":405.24500000002445},{""relative-x"":0.52587890625,""relative-y"":1.5503472222222223,""elapse-time"":437.30000000004657},{""relative-x"":0.36328125,""relative-y"":-0.030381944444444444,""elapse-time"":464.90500000002794},{""relative-x"":0.72509765625,""relative-y"":3.2161458333333335,""elapse-time"":1066.6049999999814},{""relative-x"":-0.154296875,""relative-y"":0.10850694444444445,""elapse-time"":1123.195000000007},{""relative-x"":0.2021484375,""relative-y"":0.6857638888888888,""elapse-time"":1162.000000000029},{""relative-x"":1.271484375,""relative-y"":1.0060763888888888,""elapse-time"":1191.1250000000582},{""relative-x"":0.55029296875,""relative-y"":1.5894097222222223,""elapse-time"":1220.1200000000536},{""relative-x"":0.810546875,""relative-y"":2.3819444444444446,""elapse-time"":1253.71000000005},{""relative-x"":0.42529296875,""relative-y"":1.1119791666666667,""elapse-time"":1281.7049999999872},{""relative-x"":-0.8017578125,""relative-y"":1.2326388888888888,""elapse-time"":1317.265000000014},{""relative-x"":1.20166015625,""relative-y"":-0.9322916666666666,""elapse-time"":1350.9199999999546},{""relative-x"":-0.1064453125,""relative-y"":1.0078125,""elapse-time"":1378.08500000005},{""relative-x"":0.82080078125,""relative-y"":1.7994791666666667,""elapse-time"":1407.874999999971},{""relative-x"":1.095703125,""relative-y"":2.2803819444444446,""elapse-time"":1435.500000000029},{""relative-x"":0.09814453125,""relative-y"":0.5911458333333334,""elapse-time"":1462.6849999999686},{""relative-x"":0.37744140625,""relative-y"":1.0763888888888888,""elapse-time"":1497.225000000064},{""relative-x"":0.330078125,""relative-y"":1.0078125,""elapse-time"":1526.0100000000384},{""relative-x"":0.3837890625,""relative-y"":0.6354166666666666,""elapse-time"":1554.1100000000151},{""relative-x"":-0.0166015625,""relative-y"":-0.4114583333333333,""elapse-time"":1583.8250000000407},{""relative-x"":-0.0166015625,""relative-y"":-0.4114583333333333,""elapse-time"":1610.9900000000198},{""relative-x"":0.16796875,""relative-y"":1.0694444444444444,""elapse-time"":1640.3099999999977},{""relative-x"":0.29541015625,""relative-y"":0.4236111111111111,""elapse-time"":1674.4650000000547},{""relative-x"":0.431640625,""relative-y"":0.8246527777777778,""elapse-time"":1705.405000000028},{""relative-x"":0.80908203125,""relative-y"":0.6145833333333334,""elapse-time"":1733.1500000000233},{""relative-x"":0.80908203125,""relative-y"":0.6145833333333334,""elapse-time"":1763.5950000000012},{""relative-x"":0.9189453125,""relative-y"":0.5295138888888888,""elapse-time"":1792.4950000000244},{""relative-x"":0.72021484375,""relative-y"":0.71875,""elapse-time"":1823.9650000000256},{""relative-x"":-0.720703125,""relative-y"":-0.3923611111111111,""elapse-time"":1861.3249999999534},{""relative-x"":-0.720703125,""relative-y"":-0.3923611111111111,""elapse-time"":1889.0999999999767},{""relative-x"":0.13818359375,""relative-y"":0.3342013888888889,""elapse-time"":1917.1200000000536},{""relative-x"":0.13818359375,""relative-y"":0.3342013888888889,""elapse-time"":1945.1000000000058},{""relative-x"":0.11767578125,""relative-y"":-0.04600694444444445,""elapse-time"":1974.7949999999546},{""relative-x"":0.01953125,""relative-y"":1.5338541666666667,""elapse-time"":2003.4649999999965},{""relative-x"":0.7421875,""relative-y"":0.1423611111111111,""elapse-time"":2037.1149999999616},{""relative-x"":-0.20556640625,""relative-y"":-0.8654513888888888,""elapse-time"":2065.3550000000687},{""relative-x"":-0.20556640625,""relative-y"":-0.8654513888888888,""elapse-time"":2093.6450000000186},{""relative-x"":-0.13720703125,""relative-y"":-0.2092013888888889,""elapse-time"":2123.2099999999627},{""relative-x"":-0.13720703125,""relative-y"":-0.2092013888888889,""elapse-time"":2151.375000000029},{""relative-x"":-0.625,""relative-y"":-0.3333333333333333,""elapse-time"":2180.905000000057},{""relative-x"":0.560546875,""relative-y"":0.2109375,""elapse-time"":2214.38499999998},{""relative-x"":1.11669921875,""relative-y"":0.5390625,""elapse-time"":2243.0199999999895},{""relative-x"":0.48779296875,""relative-y"":-0.7317708333333334,""elapse-time"":2269.7450000000536},{""relative-x"":1.53173828125,""relative-y"":1.5789930555555556,""elapse-time"":2571.0900000000256},{""relative-x"":-1.029296875,""relative-y"":0.003472222222222222,""elapse-time"":2626.804999999993},{""relative-x"":1.212890625,""relative-y"":0.6137152777777778,""elapse-time"":2655.570000000007},{""relative-x"":-0.29931640625,""relative-y"":0.1484375,""elapse-time"":2684.195000000036},{""relative-x"":0.84765625,""relative-y"":0.8098958333333334,""elapse-time"":2713.0899999999674},{""relative-x"":0.56396484375,""relative-y"":0.8619791666666666,""elapse-time"":2748.36500000002},{""relative-x"":0.09423828125,""relative-y"":0.4878472222222222,""elapse-time"":2774.515000000043},{""relative-x"":-0.82666015625,""relative-y"":0.22916666666666666,""elapse-time"":3747.9500000000407},{""relative-x"":-0.2080078125,""relative-y"":1.4279513888888888,""elapse-time"":3802.109999999957}]}","""","""","""","""","""","2021-01-13 17:40:08",,"Mozilla/5.0 (Windows NT 10.0; Win64; x64) AppleWebKit/537.36 (KHTML, like Gecko) Chrome/87.0.4280.141 Safari/537.36",WebKit,Chrome,87.0.4280.141,Windows,10.0
3,1,null,"""","""","""","""",html-keyboard-response,36,135678,0.0-12.0-2.0-0.11,412,0,0,"Logitech HD Webcam C310 (046d:081b)",4617013f47ced26b4374220a05f53b26b46cde178f98b7605b02151d56d7f045,30,0.0010416666666666667,960,1280,$4,"15 days","""",null,"""","""","""","""","""","""","""","""","""","""","""","2021-01-13 17:40:08",,"Mozilla/5.0 (Windows NT 10.0; Win64; x64) AppleWebKit/537.36 (KHTML, like Gecko) Chrome/87.0.4280.141 Safari/537.36",WebKit,Chrome,87.0.4280.141,Windows,10.0
3,1,"""","""","""",2048,1152,eyetracking-calibration,37,139069,0.0-12.0-2.0-1.11,412,0,0,"Logitech HD Webcam C310 (046d:081b)",4617013f47ced26b4374220a05f53b26b46cde178f98b7605b02151d56d7f045,30,0.0010416666666666667,960,1280,$4,"15 days","""","""","""",0.35,0.65,0,0,"{""history"":[{""relative-x"":-0.6337890625,""relative-y"":0.8854166666666666,""elapse-time"":78.56000000002678},{""relative-x"":0.830078125,""relative-y"":0.6510416666666666,""elapse-time"":126.3300000000454},{""relative-x"":-0.23193359375,""relative-y"":0.4791666666666667,""elapse-time"":155.64500000004773},{""relative-x"":0.03173828125,""relative-y"":0.7022569444444444,""elapse-time"":185.24499999999534},{""relative-x"":0.26123046875,""relative-y"":1.2057291666666667,""elapse-time"":213.35999999995693},{""relative-x"":0.72509765625,""relative-y"":2.0668402777777777,""elapse-time"":242.5349999999744},{""relative-x"":0.05078125,""relative-y"":2.1223958333333335,""elapse-time"":270.75},{""relative-x"":1.34423828125,""relative-y"":2.525173611111111,""elapse-time"":301.58500000005006},{""relative-x"":0.69775390625,""relative-y"":1.5842013888888888,""elapse-time"":328.1150000000198},{""relative-x"":-1.7021484375,""relative-y"":-0.7595486111111112,""elapse-time"":360.3850000000675},{""relative-x"":-0.568359375,""relative-y"":1.1388888888888888,""elapse-time"":387.8050000000512},{""relative-x"":0.6611328125,""relative-y"":0.6154513888888888,""elapse-time"":420.4200000000419},{""relative-x"":0.87890625,""relative-y"":1.4010416666666667,""elapse-time"":448.64500000004773},{""relative-x"":0.36328125,""relative-y"":0.6510416666666666,""elapse-time"":481.42500000004657},{""relative-x"":-1.38134765625,""relative-y"":-1.2586805555555556,""elapse-time"":509.5899999999965},{""relative-x"":0.3603515625,""relative-y"":0.6588541666666666,""elapse-time"":541.9050000000279},{""relative-x"":-0.341796875,""relative-y"":1.2873263888888888,""elapse-time"":571.3349999999627},{""relative-x"":0.03466796875,""relative-y"":1.4782986111111112,""elapse-time"":603.7300000000396},{""relative-x"":0.03466796875,""relative-y"":1.4782986111111112,""elapse-time"":634.8850000000384},{""relative-x"":-0.0166015625,""relative-y"":-1.3385416666666667,""elapse-time"":668.8500000000058},{""relative-x"":-0.0166015625,""relative-y"":-1.3385416666666667,""elapse-time"":699.2599999999802},{""relative-x"":-0.44921875,""relative-y"":2.1163194444444446,""elapse-time"":729.6449999999895},{""relative-x"":0.36572265625,""relative-y"":0.6649305555555556,""elapse-time"":766.3200000000652},{""relative-x"":0.12109375,""relative-y"":0.2690972222222222,""elapse-time"":796.7099999999627},{""relative-x"":0.12109375,""relative-y"":0.2690972222222222,""elapse-time"":827.4199999999546},{""relative-x"":-1.1220703125,""relative-y"":-0.09635416666666667,""elapse-time"":854.8450000000594},{""relative-x"":-0.43505859375,""relative-y"":0.04513888888888889,""elapse-time"":884.5200000000477},{""relative-x"":-0.5791015625,""relative-y"":1.4652777777777777,""elapse-time"":912.5500000000175},{""relative-x"":0.3515625,""relative-y"":0.6770833333333334,""elapse-time"":945.3349999999919},{""relative-x"":0.3515625,""relative-y"":0.6770833333333334,""elapse-time"":976.5200000000477},{""relative-x"":-0.13330078125,""relative-y"":0.09809027777777778,""elapse-time"":1009.6250000000291},{""relative-x"":0.201171875,""relative-y"":1.4019097222222223,""elapse-time"":1040.0849999999627},{""relative-x"":-0.16259765625,""relative-y"":1.6970486111111112,""elapse-time"":1069.2300000000687},{""relative-x"":0.3369140625,""relative-y"":0.7213541666666666,""elapse-time"":1104.500000000029},{""relative-x"":0.3447265625,""relative-y"":0.6475694444444444,""elapse-time"":1133.1800000000221},{""relative-x"":0.201171875,""relative-y"":-0.4487847222222222,""elapse-time"":1163.6600000000326},{""relative-x"":-0.0078125,""relative-y"":-0.6805555555555556,""elapse-time"":1194.6350000000675},{""relative-x"":-0.0078125,""relative-y"":-0.6805555555555556,""elapse-time"":1226.3800000000629},{""relative-x"":3.88916015625,""relative-y"":1.7829861111111112,""elapse-time"":1533.5350000000326},{""relative-x"":3.296875,""relative-y"":26.73263888888889,""elapse-time"":1602.920000000042},{""relative-x"":5.17236328125,""relative-y"":38.157986111111114,""elapse-time"":1639.1999999999534},{""relative-x"":-4.46044921875,""relative-y"":27.497395833333332,""elapse-time"":1668.3199999999779},{""relative-x"":-3.96337890625,""relative-y"":23.13628472222222,""elapse-time"":1696.9850000000442},{""relative-x"":-3.99609375,""relative-y"":25.39236111111111,""elapse-time"":1725.850000000035},{""relative-x"":-3.447265625,""relative-y"":18.391493055555557,""elapse-time"":1757.3250000000407},{""relative-x"":-0.06591796875,""relative-y"":0.4470486111111111,""elapse-time"":1788.6449999999604},{""relative-x"":0.1083984375,""relative-y"":0.6536458333333334,""elapse-time"":1817.859999999986},{""relative-x"":-0.33349609375,""relative-y"":0.6996527777777778,""elapse-time"":1847.2249999999767},{""relative-x"":7.45703125,""relative-y"":1.8359375,""elapse-time"":1877.405000000057},{""relative-x"":7.875,""relative-y"":2.412326388888889,""elapse-time"":1906.6300000000629},{""relative-x"":-12.63818359375,""relative-y"":-2.4965277777777777,""elapse-time"":1936.405000000028},{""relative-x"":-0.15380859375,""relative-y"":-0.5807291666666666,""elapse-time"":1967.890000000014},{""relative-x"":-0.15380859375,""relative-y"":-0.5807291666666666,""elapse-time"":1996.2249999999767},{""relative-x"":0.15185546875,""relative-y"":-0.2508680555555556,""elapse-time"":2023.78999999995},{""relative-x"":0.42138671875,""relative-y"":-0.3159722222222222,""elapse-time"":2054.9499999999534},{""relative-x"":0.4404296875,""relative-y"":-0.7222222222222222,""elapse-time"":2083.9150000000373},{""relative-x"":0.4404296875,""relative-y"":-0.7222222222222222,""elapse-time"":2110.8550000000105},{""relative-x"":0.3515625,""relative-y"":-0.08159722222222222,""elapse-time"":2141.835000000021},{""relative-x"":0.05859375,""relative-y"":0.14149305555555555,""elapse-time"":2169.679999999964},{""relative-x"":0.3740234375,""relative-y"":0.3498263888888889,""elapse-time"":2199.7549999999756},{""relative-x"":1.13623046875,""relative-y"":0.9939236111111112,""elapse-time"":2226.8850000000384},{""relative-x"":0.78759765625,""relative-y"":0.8350694444444444,""elapse-time"":2255.819999999978},{""relative-x"":0.34033203125,""relative-y"":0.6675347222222222,""elapse-time"":2283.945000000007},{""relative-x"":0.48291015625,""relative-y"":0.5651041666666666,""elapse-time"":2317.445000000007},{""relative-x"":0.48291015625,""relative-y"":0.5651041666666666,""elapse-time"":2346},{""relative-x"":0.2099609375,""relative-y"":0.4748263888888889,""elapse-time"":2374.310000000027},{""relative-x"":-0.05908203125,""relative-y"":0.6050347222222222,""elapse-time"":2402.7750000000233},{""relative-x"":0.2958984375,""relative-y"":0.6935763888888888,""elapse-time"":2430.9349999999686},{""relative-x"":-0.1787109375,""relative-y"":0.06336805555555555,""elapse-time"":2459.4550000000454},{""relative-x"":0.50244140625,""relative-y"":0.21961805555555555,""elapse-time"":2494.305000000051},{""relative-x"":-1.4013671875,""relative-y"":-0.8289930555555556,""elapse-time"":2523.095000000001},{""relative-x"":-1.4013671875,""relative-y"":-0.8289930555555556,""elapse-time"":2553.009999999951},{""relative-x"":0.22705078125,""relative-y"":0.3350694444444444,""elapse-time"":2582.220000000001},{""relative-x"":0.36767578125,""relative-y"":0.4314236111111111,""elapse-time"":2612.0449999999546},{""relative-x"":0.89404296875,""relative-y"":1.2022569444444444,""elapse-time"":2648.054999999993},{""relative-x"":0.791015625,""relative-y"":1.3394097222222223,""elapse-time"":2677.9000000000233},{""relative-x"":0.75732421875,""relative-y"":1.1119791666666667,""elapse-time"":2710.530000000057},{""relative-x"":0.75732421875,""relative-y"":1.1119791666666667,""elapse-time"":2740.045000000013},{""relative-x"":4.3349609375,""relative-y"":-2.923611111111111,""elapse-time"":3066.1900000000023},{""relative-x"":-0.5283203125,""relative-y"":-1.8081597222222223,""elapse-time"":3129.390000000043},{""relative-x"":-0.6904296875,""relative-y"":-0.078125,""elapse-time"":3168.985000000015},{""relative-x"":2.9775390625,""relative-y"":11.605902777777779,""elapse-time"":3198.624999999971},{""relative-x"":0.40966796875,""relative-y"":-6.21875,""elapse-time"":3228.5299999999697},{""relative-x"":0.3271484375,""relative-y"":0.4730902777777778,""elapse-time"":3256.029999999999},{""relative-x"":1.00732421875,""relative-y"":1.0824652777777777,""elapse-time"":3284.9650000000547},{""relative-x"":0.7392578125,""relative-y"":0.9895833333333334,""elapse-time"":3312.2299999999814},{""relative-x"":0.27880859375,""relative-y"":0.4852430555555556,""elapse-time"":3343.46000000005},{""relative-x"":0.66845703125,""relative-y"":0.5208333333333334,""elapse-time"":3371.5449999999546}]}","""","""","""","""","""","2021-01-13 17:40:08",,"Mozilla/5.0 (Windows NT 10.0; Win64; x64) AppleWebKit/537.36 (KHTML, like Gecko) Chrome/87.0.4280.141 Safari/537.36",WebKit,Chrome,87.0.4280.141,Windows,10.0
3,1,null,"<div style=""font-size:30px;""><p><strong>30%</strong><br><br>Calibration complete</p></div>","""","""","""",html-keyboard-response,38,140572,0.0-12.0-2.0-0.12,412,0,0,"Logitech HD Webcam C310 (046d:081b)",4617013f47ced26b4374220a05f53b26b46cde178f98b7605b02151d56d7f045,30,0.0010416666666666667,960,1280,$4,"15 days","""",null,"""","""","""","""","""","""","""","""","""","""","""","2021-01-13 17:40:08",,"Mozilla/5.0 (Windows NT 10.0; Win64; x64) AppleWebKit/537.36 (KHTML, like Gecko) Chrome/87.0.4280.141 Safari/537.36",WebKit,Chrome,87.0.4280.141,Windows,10.0
3,1,"""","""","""",2048,1152,eyetracking-calibration,39,144073,0.0-12.0-2.0-1.12,412,0,0,"Logitech HD Webcam C310 (046d:081b)",4617013f47ced26b4374220a05f53b26b46cde178f98b7605b02151d56d7f045,30,0.0010416666666666667,960,1280,$4,"15 days","""","""","""",0.35,0.35,0,0,"{""history"":[{""relative-x"":2.09619140625,""relative-y"":2.6293402777777777,""elapse-time"":65.00500000003376},{""relative-x"":0.74072265625,""relative-y"":1.2109375,""elapse-time"":94.10000000000582},{""relative-x"":0.9716796875,""relative-y"":-4.813368055555555,""elapse-time"":123.13500000003842},{""relative-x"":1.0888671875,""relative-y"":1.2951388888888888,""elapse-time"":149.98500000001513},{""relative-x"":0.935546875,""relative-y"":1.2682291666666667,""elapse-time"":177.0450000000128},{""relative-x"":0.9033203125,""relative-y"":2.185763888888889,""elapse-time"":204.55000000001746},{""relative-x"":-1.1640625,""relative-y"":-0.07291666666666667,""elapse-time"":235.79000000006636},{""relative-x"":-1.1640625,""relative-y"":-0.07291666666666667,""elapse-time"":264.5800000000163},{""relative-x"":-0.74169921875,""relative-y"":-0.014756944444444444,""elapse-time"":296.19999999998254},{""relative-x"":-1.5009765625,""relative-y"":0.13020833333333334,""elapse-time"":324.66499999997905},{""relative-x"":0.36474609375,""relative-y"":0.3307291666666667,""elapse-time"":355.8950000000186},{""relative-x"":-0.05224609375,""relative-y"":0.7699652777777778,""elapse-time"":383.6149999999616},{""relative-x"":0.98974609375,""relative-y"":-0.7795138888888888,""elapse-time"":413.8900000000431},{""relative-x"":0.51904296875,""relative-y"":-0.4279513888888889,""elapse-time"":440.8050000000512},{""relative-x"":0.47705078125,""relative-y"":0.4765625,""elapse-time"":472.8399999999965},{""relative-x"":0.5732421875,""relative-y"":0.6336805555555556,""elapse-time"":500.83500000005006},{""relative-x"":0.43115234375,""relative-y"":0.4453125,""elapse-time"":533.4649999999674},{""relative-x"":1.38671875,""relative-y"":1.6475694444444444,""elapse-time"":560.1450000000186},{""relative-x"":-0.232421875,""relative-y"":0.6293402777777778,""elapse-time"":591.5549999999639},{""relative-x"":0.2666015625,""relative-y"":1.0017361111111112,""elapse-time"":619.2150000000547},{""relative-x"":0.39501953125,""relative-y"":0.7916666666666666,""elapse-time"":648.8349999999627},{""relative-x"":0.39501953125,""relative-y"":0.7916666666666666,""elapse-time"":679.9550000000454},{""relative-x"":0.2333984375,""relative-y"":0.3585069444444444,""elapse-time"":715.6899999999732},{""relative-x"":0.2333984375,""relative-y"":0.3585069444444444,""elapse-time"":744.9800000000396},{""relative-x"":-0.3525390625,""relative-y"":1.5755208333333333,""elapse-time"":778.914999999979},{""relative-x"":0.201171875,""relative-y"":0.609375,""elapse-time"":809.4100000000617},{""relative-x"":0.205078125,""relative-y"":0.2065972222222222,""elapse-time"":842.7450000000244},{""relative-x"":0.205078125,""relative-y"":0.2065972222222222,""elapse-time"":872.225000000064},{""relative-x"":0.19921875,""relative-y"":0.328125,""elapse-time"":902.8849999999511},{""relative-x"":0.19921875,""relative-y"":0.328125,""elapse-time"":933.7900000000373},{""relative-x"":2.7080078125,""relative-y"":-6.451388888888889,""elapse-time"":1248.6900000000023},{""relative-x"":0.3759765625,""relative-y"":2.3628472222222223,""elapse-time"":1301.350000000064},{""relative-x"":0.75244140625,""relative-y"":-0.5104166666666666,""elapse-time"":1335.5999999999767},{""relative-x"":-0.06201171875,""relative-y"":1.9748263888888888,""elapse-time"":1364.530000000057},{""relative-x"":0.16259765625,""relative-y"":0.2829861111111111,""elapse-time"":1393.5800000000454},{""relative-x"":0.60107421875,""relative-y"":0.3550347222222222,""elapse-time"":1442.6749999999884},{""relative-x"":-0.2919921875,""relative-y"":-0.19444444444444445,""elapse-time"":1477.0250000000233},{""relative-x"":0.19140625,""relative-y"":0.6684027777777778,""elapse-time"":1513.6200000000536},{""relative-x"":0.5048828125,""relative-y"":0.3229166666666667,""elapse-time"":1542.3349999999627},{""relative-x"":0.09033203125,""relative-y"":0.2873263888888889,""elapse-time"":1586.8999999999942},{""relative-x"":1.78955078125,""relative-y"":0.6154513888888888,""elapse-time"":1616.125},{""relative-x"":-2.03564453125,""relative-y"":0.3697916666666667,""elapse-time"":1646.8899999999849},{""relative-x"":-1.5625,""relative-y"":1.9982638888888888,""elapse-time"":1683.6050000000396},{""relative-x"":-3.8154296875,""relative-y"":7.973090277777778,""elapse-time"":1714.1149999999907},{""relative-x"":-1.05078125,""relative-y"":-0.2248263888888889,""elapse-time"":1746.125},{""relative-x"":-0.14794921875,""relative-y"":0.6796875,""elapse-time"":1774.6749999999884},{""relative-x"":-4.22705078125,""relative-y"":8.690104166666666,""elapse-time"":1804.9250000000175},{""relative-x"":0.6826171875,""relative-y"":0.8932291666666666,""elapse-time"":1840.6750000000175},{""relative-x"":-1.92138671875,""relative-y"":4.756944444444445,""elapse-time"":1867.4700000000303},{""relative-x"":-0.634765625,""relative-y"":2.9565972222222223,""elapse-time"":1896.7700000000477},{""relative-x"":-6.43896484375,""relative-y"":14.368055555555555,""elapse-time"":1927.2749999999942},{""relative-x"":-6.43896484375,""relative-y"":14.368055555555555,""elapse-time"":1958.0349999999744},{""relative-x"":-6.43896484375,""relative-y"":14.368055555555555,""elapse-time"":1987.4049999999697},{""relative-x"":0.65380859375,""relative-y"":0.5642361111111112,""elapse-time"":2021.664999999979},{""relative-x"":-0.3544921875,""relative-y"":1.2621527777777777,""elapse-time"":2049.8099999999686},{""relative-x"":0.708984375,""relative-y"":0.6805555555555556,""elapse-time"":2079.03999999995},{""relative-x"":0.439453125,""relative-y"":0.8741319444444444,""elapse-time"":2108.7949999999837},{""relative-x"":2.0224609375,""relative-y"":-2.9539930555555554,""elapse-time"":2137.6450000000186},{""relative-x"":2.0224609375,""relative-y"":-2.9539930555555554,""elapse-time"":2166.9199999999837},{""relative-x"":-0.04150390625,""relative-y"":0.8706597222222222,""elapse-time"":2200.9000000000524},{""relative-x"":-0.04150390625,""relative-y"":0.8706597222222222,""elapse-time"":2228.8150000000314},{""relative-x"":-0.04150390625,""relative-y"":0.8706597222222222,""elapse-time"":2258.3699999999953},{""relative-x"":0.24072265625,""relative-y"":0.7725694444444444,""elapse-time"":2287.0400000000373},{""relative-x"":0.24072265625,""relative-y"":0.7725694444444444,""elapse-time"":2316.305000000051},{""relative-x"":-8.05810546875,""relative-y"":15.65017361111111,""elapse-time"":2344.7700000000186},{""relative-x"":0.40673828125,""relative-y"":0.8220486111111112,""elapse-time"":2378.7300000000105},{""relative-x"":-0.73095703125,""relative-y"":1.4704861111111112,""elapse-time"":2408.0599999999686},{""relative-x"":-0.4775390625,""relative-y"":1.625,""elapse-time"":2436.914999999979},{""relative-x"":-0.4775390625,""relative-y"":1.625,""elapse-time"":2471.094999999972},{""relative-x"":-0.02734375,""relative-y"":1.2473958333333333,""elapse-time"":2500.6050000000687},{""relative-x"":0.69189453125,""relative-y"":-1.4097222222222223,""elapse-time"":2840.3399999999674},{""relative-x"":-0.47021484375,""relative-y"":-0.7048611111111112,""elapse-time"":2891.4349999999977},{""relative-x"":0.599609375,""relative-y"":0.8064236111111112,""elapse-time"":2926.2750000000233},{""relative-x"":1.27587890625,""relative-y"":-0.12413194444444445,""elapse-time"":2955.3550000000396},{""relative-x"":1.505859375,""relative-y"":-0.2282986111111111,""elapse-time"":2983.0749999999825},{""relative-x"":1.41357421875,""relative-y"":-0.6779513888888888,""elapse-time"":3013.265000000043},{""relative-x"":-0.22900390625,""relative-y"":1.2439236111111112,""elapse-time"":3041.0199999999895},{""relative-x"":1.17529296875,""relative-y"":-1.40625,""elapse-time"":3070.4950000000536}]}","""","""","""","""","""","2021-01-13 17:40:08",,"Mozilla/5.0 (Windows NT 10.0; Win64; x64) AppleWebKit/537.36 (KHTML, like Gecko) Chrome/87.0.4280.141 Safari/537.36",WebKit,Chrome,87.0.4280.141,Windows,10.0
3,1,null,"""","""","""","""",html-keyboard-response,40,145576,0.0-12.0-2.0-0.13,412,0,0,"Logitech HD Webcam C310 (046d:081b)",4617013f47ced26b4374220a05f53b26b46cde178f98b7605b02151d56d7f045,30,0.0010416666666666667,960,1280,$4,"15 days","""",null,"""","""","""","""","""","""","""","""","""","""","""","2021-01-13 17:40:08",,"Mozilla/5.0 (Windows NT 10.0; Win64; x64) AppleWebKit/537.36 (KHTML, like Gecko) Chrome/87.0.4280.141 Safari/537.36",WebKit,Chrome,87.0.4280.141,Windows,10.0
3,1,"""","""","""",2048,1152,eyetracking-calibration,41,148945,0.0-12.0-2.0-1.13,412,0,0,"Logitech HD Webcam C310 (046d:081b)",4617013f47ced26b4374220a05f53b26b46cde178f98b7605b02151d56d7f045,30,0.0010416666666666667,960,1280,$4,"15 days","""","""","""",0.2,0.5,0,0,"{""history"":[{""relative-x"":-1.57177734375,""relative-y"":2.381076388888889,""elapse-time"":570.1050000000105},{""relative-x"":0.4736328125,""relative-y"":0.3949652777777778,""elapse-time"":618.049999999901},{""relative-x"":-0.87744140625,""relative-y"":1.6597222222222223,""elapse-time"":647.7399999999907},{""relative-x"":0.62353515625,""relative-y"":0.703125,""elapse-time"":680.5650000000023}]}","""","""","""","""","""","2021-01-13 17:40:08",,"Mozilla/5.0 (Windows NT 10.0; Win64; x64) AppleWebKit/537.36 (KHTML, like Gecko) Chrome/87.0.4280.141 Safari/537.36",WebKit,Chrome,87.0.4280.141,Windows,10.0
3,1,null,"""","""","""","""",html-keyboard-response,42,150448,0.0-12.0-2.0-0.14,412,0,0,"Logitech HD Webcam C310 (046d:081b)",4617013f47ced26b4374220a05f53b26b46cde178f98b7605b02151d56d7f045,30,0.0010416666666666667,960,1280,$4,"15 days","""",null,"""","""","""","""","""","""","""","""","""","""","""","2021-01-13 17:40:08",,"Mozilla/5.0 (Windows NT 10.0; Win64; x64) AppleWebKit/537.36 (KHTML, like Gecko) Chrome/87.0.4280.141 Safari/537.36",WebKit,Chrome,87.0.4280.141,Windows,10.0
